group_id,subject,velocity,trial_num,trial_id,component_index,frame_idx,h_value,status,n_components,vaf,extractor_type,extractor_backend,analysis_window_onset_column,analysis_window_offset_column,analysis_window_start,analysis_window_end,analysis_window_start_device,analysis_window_end_device,analysis_window_duration_device_frames,analysis_step_class,analysis_is_step,analysis_is_nonstep,analysis_is_mixed_flag,analysis_window_source,analysis_window_is_surrogate,analysis_state,analysis_state_norm,analysis_stance_side,analysis_dominant_side,analysis_age_group,analysis_selected_group,analysis_selection_rule,analysis_major_step_side,analysis_subject_mean_step_onset,analysis_subject_mean_step_latency
global_step,S01,1.0000000000,1,S01_v1.0_T1,0,0,3.0545186996,ok,1,0.9987093320,nmf,sklearn_nmf,platform_onset,analysis_window_end,3.0000000000,11.0000000000,30,110,80,step,True,False,True,actual_step_onset,False,step_R,step_r,left,R,young,True,replace_v3d_meta_prefilter,step_r,12.0000000000,9.0000000000
global_step,S01,1.0000000000,1,S01_v1.0_T1,0,1,3.0548772812,ok,1,0.9987093320,nmf,sklearn_nmf,platform_onset,analysis_window_end,3.0000000000,11.0000000000,30,110,80,step,True,False,True,actual_step_onset,False,step_R,step_r,left,R,young,True,replace_v3d_meta_prefilter,step_r,12.0000000000,9.0000000000
global_step,S01,1.0000000000,1,S01_v1.0_T1,0,2,3.0552358627,ok,1,0.9987093320,nmf,sklearn_nmf,platform_onset,analysis_window_end,3.0000000000,11.0000000000,30,110,80,step,True,False,True,actual_step_onset,False,step_R,step_r,left,R,young,True,replace_v3d_meta_prefilter,step_r,12.0000000000,9.0000000000
global_step,S01,1.0000000000,1,S01_v1.0_T1,0,3,3.0555946827,ok,1,0.9987093320,nmf,sklearn_nmf,platform_onset,analysis_window_end,3.0000000000,11.0000000000,30,110,80,step,True,False,True,actual_step_onset,False,step_R,step_r,left,R,young,True,replace_v3d_meta_prefilter,step_r,12.0000000000,9.0000000000
global_step,S01,1.0000000000,1,S01_v1.0_T1,0,4,3.0559532642,ok,1,0.9987093320,nmf,sklearn_nmf,platform_onset,analysis_window_end,3.0000000000,11.0000000000,30,110,80,step,True,False,True,actual_step_onset,False,step_R,step_r,left,R,young,True,replace_v3d_meta_prefilter,step_r,12.0000000000,9.0000000000
global_step,S01,1.0000000000,1,S01_v1.0_T1,0,5,3.0563118458,ok,1,0.9987093320,nmf,sklearn_nmf,platform_onset,analysis_window_end,3.0000000000,11.0000000000,30,110,80,step,True,False,True,actual_step_onset,False,step_R,step_r,left,R,young,True,replace_v3d_meta_prefilter,step_r,12.0000000000,9.0000000000
global_step,S01,1.0000000000,1,S01_v1.0_T1,0,6,3.0566704273,ok,1,0.9987093320,nmf,sklearn_nmf,platform_onset,analysis_window_end,3.0000000000,11.0000000000,30,110,80,step,True,False,True,actual_step_onset,False,step_R,step_r,left,R,young,True,replace_v3d_meta_prefilter,step_r,12.0000000000,9.0000000000
global_step,S01,1.0000000000,1,S01_v1.0_T1,0,7,3.0570292473,ok,1,0.9987093320,nmf,sklearn_nmf,platform_onset,analysis_window_end,3.0000000000,11.0000000000,30,110,80,step,True,False,True,actual_step_onset,False,step_R,step_r,left,R,young,True,replace_v3d_meta_prefilter,step_r,12.0000000000,9.0000000000
global_step,S01,1.0000000000,1,S01_v1.0_T1,0,8,3.0573878288,ok,1,0.9987093320,nmf,sklearn_nmf,platform_onset,analysis_window_end,3.0000000000,11.0000000000,30,110,80,step,True,False,True,actual_step_onset,False,step_R,step_r,left,R,young,True,replace_v3d_meta_prefilter,step_r,12.0000000000,9.0000000000
global_step,S01,1.0000000000,1,S01_v1.0_T1,0,9,3.0577464104,ok,1,0.9987093320,nmf,sklearn_nmf,platform_onset,analysis_window_end,3.0000000000,11.0000000000,30,110,80,step,True,False,True,actual_step_onset,False,step_R,step_r,left,R,young,True,replace_v3d_meta_prefilter,step_r,12.0000000000,9.0000000000
global_step,S01,1.0000000000,1,S01_v1.0_T1,0,10,3.0581049919,ok,1,0.9987093320,nmf,sklearn_nmf,platform_onset,analysis_window_end,3.0000000000,11.0000000000,30,110,80,step,True,False,True,actual_step_onset,False,step_R,step_r,left,R,young,True,replace_v3d_meta_prefilter,step_r,12.0000000000,9.0000000000
global_step,S01,1.0000000000,1,S01_v1.0_T1,0,11,3.0584638119,ok,1,0.9987093320,nmf,sklearn_nmf,platform_onset,analysis_window_end,3.0000000000,11.0000000000,30,110,80,step,True,False,True,actual_step_onset,False,step_R,step_r,left,R,young,True,replace_v3d_meta_prefilter,step_r,12.0000000000,9.0000000000
global_step,S01,1.0000000000,1,S01_v1.0_T1,0,12,3.0588223934,ok,1,0.9987093320,nmf,sklearn_nmf,platform_onset,analysis_window_end,3.0000000000,11.0000000000,30,110,80,step,True,False,True,actual_step_onset,False,step_R,step_r,left,R,young,True,replace_v3d_meta_prefilter,step_r,12.0000000000,9.0000000000
global_step,S01,1.0000000000,1,S01_v1.0_T1,0,13,3.0580344200,ok,1,0.9987093320,nmf,sklearn_nmf,platform_onset,analysis_window_end,3.0000000000,11.0000000000,30,110,80,step,True,False,True,actual_step_onset,False,step_R,step_r,left,R,young,True,replace_v3d_meta_prefilter,step_r,12.0000000000,9.0000000000
global_step,S01,1.0000000000,1,S01_v1.0_T1,0,14,3.0565588474,ok,1,0.9987093320,nmf,sklearn_nmf,platform_onset,analysis_window_end,3.0000000000,11.0000000000,30,110,80,step,True,False,True,actual_step_onset,False,step_R,step_r,left,R,young,True,replace_v3d_meta_prefilter,step_r,12.0000000000,9.0000000000
global_step,S01,1.0000000000,1,S01_v1.0_T1,0,15,3.0550830364,ok,1,0.9987093320,nmf,sklearn_nmf,platform_onset,analysis_window_end,3.0000000000,11.0000000000,30,110,80,step,True,False,True,actual_step_onset,False,step_R,step_r,left,R,young,True,replace_v3d_meta_prefilter,step_r,12.0000000000,9.0000000000
global_step,S01,1.0000000000,1,S01_v1.0_T1,0,16,3.0536072254,ok,1,0.9987093320,nmf,sklearn_nmf,platform_onset,analysis_window_end,3.0000000000,11.0000000000,30,110,80,step,True,False,True,actual_step_onset,False,step_R,step_r,left,R,young,True,replace_v3d_meta_prefilter,step_r,12.0000000000,9.0000000000
global_step,S01,1.0000000000,1,S01_v1.0_T1,0,17,3.0521314144,ok,1,0.9987093320,nmf,sklearn_nmf,platform_onset,analysis_window_end,3.0000000000,11.0000000000,30,110,80,step,True,False,True,actual_step_onset,False,step_R,step_r,left,R,young,True,replace_v3d_meta_prefilter,step_r,12.0000000000,9.0000000000
global_step,S01,1.0000000000,1,S01_v1.0_T1,0,18,3.0506558418,ok,1,0.9987093320,nmf,sklearn_nmf,platform_onset,analysis_window_end,3.0000000000,11.0000000000,30,110,80,step,True,False,True,actual_step_onset,False,step_R,step_r,left,R,young,True,replace_v3d_meta_prefilter,step_r,12.0000000000,9.0000000000
global_step,S01,1.0000000000,1,S01_v1.0_T1,0,19,3.0491800308,ok,1,0.9987093320,nmf,sklearn_nmf,platform_onset,analysis_window_end,3.0000000000,11.0000000000,30,110,80,step,True,False,True,actual_step_onset,False,step_R,step_r,left,R,young,True,replace_v3d_meta_prefilter,step_r,12.0000000000,9.0000000000
global_step,S01,1.0000000000,1,S01_v1.0_T1,0,20,3.0477042198,ok,1,0.9987093320,nmf,sklearn_nmf,platform_onset,analysis_window_end,3.0000000000,11.0000000000,30,110,80,step,True,False,True,actual_step_onset,False,step_R,step_r,left,R,young,True,replace_v3d_meta_prefilter,step_r,12.0000000000,9.0000000000
global_step,S01,1.0000000000,1,S01_v1.0_T1,0,21,3.0462286472,ok,1,0.9987093320,nmf,sklearn_nmf,platform_onset,analysis_window_end,3.0000000000,11.0000000000,30,110,80,step,True,False,True,actual_step_onset,False,step_R,step_r,left,R,young,True,replace_v3d_meta_prefilter,step_r,12.0000000000,9.0000000000
global_step,S01,1.0000000000,1,S01_v1.0_T1,0,22,3.0447528362,ok,1,0.9987093320,nmf,sklearn_nmf,platform_onset,analysis_window_end,3.0000000000,11.0000000000,30,110,80,step,True,False,True,actual_step_onset,False,step_R,step_r,left,R,young,True,replace_v3d_meta_prefilter,step_r,12.0000000000,9.0000000000
global_step,S01,1.0000000000,1,S01_v1.0_T1,0,23,3.0432770252,ok,1,0.9987093320,nmf,sklearn_nmf,platform_onset,analysis_window_end,3.0000000000,11.0000000000,30,110,80,step,True,False,True,actual_step_onset,False,step_R,step_r,left,R,young,True,replace_v3d_meta_prefilter,step_r,12.0000000000,9.0000000000
global_step,S01,1.0000000000,1,S01_v1.0_T1,0,24,3.0418012142,ok,1,0.9987093320,nmf,sklearn_nmf,platform_onset,analysis_window_end,3.0000000000,11.0000000000,30,110,80,step,True,False,True,actual_step_onset,False,step_R,step_r,left,R,young,True,replace_v3d_meta_prefilter,step_r,12.0000000000,9.0000000000
global_step,S01,1.0000000000,1,S01_v1.0_T1,0,25,3.0398998260,ok,1,0.9987093320,nmf,sklearn_nmf,platform_onset,analysis_window_end,3.0000000000,11.0000000000,30,110,80,step,True,False,True,actual_step_onset,False,step_R,step_r,left,R,young,True,replace_v3d_meta_prefilter,step_r,12.0000000000,9.0000000000
global_step,S01,1.0000000000,1,S01_v1.0_T1,0,26,3.0367209911,ok,1,0.9987093320,nmf,sklearn_nmf,platform_onset,analysis_window_end,3.0000000000,11.0000000000,30,110,80,step,True,False,True,actual_step_onset,False,step_R,step_r,left,R,young,True,replace_v3d_meta_prefilter,step_r,12.0000000000,9.0000000000
global_step,S01,1.0000000000,1,S01_v1.0_T1,0,27,3.0335421562,ok,1,0.9987093320,nmf,sklearn_nmf,platform_onset,analysis_window_end,3.0000000000,11.0000000000,30,110,80,step,True,False,True,actual_step_onset,False,step_R,step_r,left,R,young,True,replace_v3d_meta_prefilter,step_r,12.0000000000,9.0000000000
global_step,S01,1.0000000000,1,S01_v1.0_T1,0,28,3.0303633213,ok,1,0.9987093320,nmf,sklearn_nmf,platform_onset,analysis_window_end,3.0000000000,11.0000000000,30,110,80,step,True,False,True,actual_step_onset,False,step_R,step_r,left,R,young,True,replace_v3d_meta_prefilter,step_r,12.0000000000,9.0000000000
global_step,S01,1.0000000000,1,S01_v1.0_T1,0,29,3.0271844864,ok,1,0.9987093320,nmf,sklearn_nmf,platform_onset,analysis_window_end,3.0000000000,11.0000000000,30,110,80,step,True,False,True,actual_step_onset,False,step_R,step_r,left,R,young,True,replace_v3d_meta_prefilter,step_r,12.0000000000,9.0000000000
global_step,S01,1.0000000000,1,S01_v1.0_T1,0,30,3.0240056515,ok,1,0.9987093320,nmf,sklearn_nmf,platform_onset,analysis_window_end,3.0000000000,11.0000000000,30,110,80,step,True,False,True,actual_step_onset,False,step_R,step_r,left,R,young,True,replace_v3d_meta_prefilter,step_r,12.0000000000,9.0000000000
global_step,S01,1.0000000000,1,S01_v1.0_T1,0,31,3.0208268166,ok,1,0.9987093320,nmf,sklearn_nmf,platform_onset,analysis_window_end,3.0000000000,11.0000000000,30,110,80,step,True,False,True,actual_step_onset,False,step_R,step_r,left,R,young,True,replace_v3d_meta_prefilter,step_r,12.0000000000,9.0000000000
global_step,S01,1.0000000000,1,S01_v1.0_T1,0,32,3.0176479816,ok,1,0.9987093320,nmf,sklearn_nmf,platform_onset,analysis_window_end,3.0000000000,11.0000000000,30,110,80,step,True,False,True,actual_step_onset,False,step_R,step_r,left,R,young,True,replace_v3d_meta_prefilter,step_r,12.0000000000,9.0000000000
global_step,S01,1.0000000000,1,S01_v1.0_T1,0,33,3.0144691467,ok,1,0.9987093320,nmf,sklearn_nmf,platform_onset,analysis_window_end,3.0000000000,11.0000000000,30,110,80,step,True,False,True,actual_step_onset,False,step_R,step_r,left,R,young,True,replace_v3d_meta_prefilter,step_r,12.0000000000,9.0000000000
global_step,S01,1.0000000000,1,S01_v1.0_T1,0,34,3.0112903118,ok,1,0.9987093320,nmf,sklearn_nmf,platform_onset,analysis_window_end,3.0000000000,11.0000000000,30,110,80,step,True,False,True,actual_step_onset,False,step_R,step_r,left,R,young,True,replace_v3d_meta_prefilter,step_r,12.0000000000,9.0000000000
global_step,S01,1.0000000000,1,S01_v1.0_T1,0,35,3.0081114769,ok,1,0.9987093320,nmf,sklearn_nmf,platform_onset,analysis_window_end,3.0000000000,11.0000000000,30,110,80,step,True,False,True,actual_step_onset,False,step_R,step_r,left,R,young,True,replace_v3d_meta_prefilter,step_r,12.0000000000,9.0000000000
global_step,S01,1.0000000000,1,S01_v1.0_T1,0,36,3.0049326420,ok,1,0.9987093320,nmf,sklearn_nmf,platform_onset,analysis_window_end,3.0000000000,11.0000000000,30,110,80,step,True,False,True,actual_step_onset,False,step_R,step_r,left,R,young,True,replace_v3d_meta_prefilter,step_r,12.0000000000,9.0000000000
global_step,S01,1.0000000000,1,S01_v1.0_T1,0,37,3.0017538071,ok,1,0.9987093320,nmf,sklearn_nmf,platform_onset,analysis_window_end,3.0000000000,11.0000000000,30,110,80,step,True,False,True,actual_step_onset,False,step_R,step_r,left,R,young,True,replace_v3d_meta_prefilter,step_r,12.0000000000,9.0000000000
global_step,S01,1.0000000000,1,S01_v1.0_T1,0,38,2.9973099232,ok,1,0.9987093320,nmf,sklearn_nmf,platform_onset,analysis_window_end,3.0000000000,11.0000000000,30,110,80,step,True,False,True,actual_step_onset,False,step_R,step_r,left,R,young,True,replace_v3d_meta_prefilter,step_r,12.0000000000,9.0000000000
global_step,S01,1.0000000000,1,S01_v1.0_T1,0,39,2.9926855564,ok,1,0.9987093320,nmf,sklearn_nmf,platform_onset,analysis_window_end,3.0000000000,11.0000000000,30,110,80,step,True,False,True,actual_step_onset,False,step_R,step_r,left,R,young,True,replace_v3d_meta_prefilter,step_r,12.0000000000,9.0000000000
global_step,S01,1.0000000000,1,S01_v1.0_T1,0,40,2.9880611897,ok,1,0.9987093320,nmf,sklearn_nmf,platform_onset,analysis_window_end,3.0000000000,11.0000000000,30,110,80,step,True,False,True,actual_step_onset,False,step_R,step_r,left,R,young,True,replace_v3d_meta_prefilter,step_r,12.0000000000,9.0000000000
global_step,S01,1.0000000000,1,S01_v1.0_T1,0,41,2.9834368229,ok,1,0.9987093320,nmf,sklearn_nmf,platform_onset,analysis_window_end,3.0000000000,11.0000000000,30,110,80,step,True,False,True,actual_step_onset,False,step_R,step_r,left,R,young,True,replace_v3d_meta_prefilter,step_r,12.0000000000,9.0000000000
global_step,S01,1.0000000000,1,S01_v1.0_T1,0,42,2.9788124561,ok,1,0.9987093320,nmf,sklearn_nmf,platform_onset,analysis_window_end,3.0000000000,11.0000000000,30,110,80,step,True,False,True,actual_step_onset,False,step_R,step_r,left,R,young,True,replace_v3d_meta_prefilter,step_r,12.0000000000,9.0000000000
global_step,S01,1.0000000000,1,S01_v1.0_T1,0,43,2.9741878510,ok,1,0.9987093320,nmf,sklearn_nmf,platform_onset,analysis_window_end,3.0000000000,11.0000000000,30,110,80,step,True,False,True,actual_step_onset,False,step_R,step_r,left,R,young,True,replace_v3d_meta_prefilter,step_r,12.0000000000,9.0000000000
global_step,S01,1.0000000000,1,S01_v1.0_T1,0,44,2.9695634842,ok,1,0.9987093320,nmf,sklearn_nmf,platform_onset,analysis_window_end,3.0000000000,11.0000000000,30,110,80,step,True,False,True,actual_step_onset,False,step_R,step_r,left,R,young,True,replace_v3d_meta_prefilter,step_r,12.0000000000,9.0000000000
global_step,S01,1.0000000000,1,S01_v1.0_T1,0,45,2.9649391174,ok,1,0.9987093320,nmf,sklearn_nmf,platform_onset,analysis_window_end,3.0000000000,11.0000000000,30,110,80,step,True,False,True,actual_step_onset,False,step_R,step_r,left,R,young,True,replace_v3d_meta_prefilter,step_r,12.0000000000,9.0000000000
global_step,S01,1.0000000000,1,S01_v1.0_T1,0,46,2.9603147507,ok,1,0.9987093320,nmf,sklearn_nmf,platform_onset,analysis_window_end,3.0000000000,11.0000000000,30,110,80,step,True,False,True,actual_step_onset,False,step_R,step_r,left,R,young,True,replace_v3d_meta_prefilter,step_r,12.0000000000,9.0000000000
global_step,S01,1.0000000000,1,S01_v1.0_T1,0,47,2.9556903839,ok,1,0.9987093320,nmf,sklearn_nmf,platform_onset,analysis_window_end,3.0000000000,11.0000000000,30,110,80,step,True,False,True,actual_step_onset,False,step_R,step_r,left,R,young,True,replace_v3d_meta_prefilter,step_r,12.0000000000,9.0000000000
global_step,S01,1.0000000000,1,S01_v1.0_T1,0,48,2.9510657787,ok,1,0.9987093320,nmf,sklearn_nmf,platform_onset,analysis_window_end,3.0000000000,11.0000000000,30,110,80,step,True,False,True,actual_step_onset,False,step_R,step_r,left,R,young,True,replace_v3d_meta_prefilter,step_r,12.0000000000,9.0000000000
global_step,S01,1.0000000000,1,S01_v1.0_T1,0,49,2.9464414120,ok,1,0.9987093320,nmf,sklearn_nmf,platform_onset,analysis_window_end,3.0000000000,11.0000000000,30,110,80,step,True,False,True,actual_step_onset,False,step_R,step_r,left,R,young,True,replace_v3d_meta_prefilter,step_r,12.0000000000,9.0000000000
global_step,S01,1.0000000000,1,S01_v1.0_T1,0,50,2.9412765503,ok,1,0.9987093320,nmf,sklearn_nmf,platform_onset,analysis_window_end,3.0000000000,11.0000000000,30,110,80,step,True,False,True,actual_step_onset,False,step_R,step_r,left,R,young,True,replace_v3d_meta_prefilter,step_r,12.0000000000,9.0000000000
global_step,S01,1.0000000000,1,S01_v1.0_T1,0,51,2.9355714321,ok,1,0.9987093320,nmf,sklearn_nmf,platform_onset,analysis_window_end,3.0000000000,11.0000000000,30,110,80,step,True,False,True,actual_step_onset,False,step_R,step_r,left,R,young,True,replace_v3d_meta_prefilter,step_r,12.0000000000,9.0000000000
global_step,S01,1.0000000000,1,S01_v1.0_T1,0,52,2.9298663139,ok,1,0.9987093320,nmf,sklearn_nmf,platform_onset,analysis_window_end,3.0000000000,11.0000000000,30,110,80,step,True,False,True,actual_step_onset,False,step_R,step_r,left,R,young,True,replace_v3d_meta_prefilter,step_r,12.0000000000,9.0000000000
global_step,S01,1.0000000000,1,S01_v1.0_T1,0,53,2.9241611958,ok,1,0.9987093320,nmf,sklearn_nmf,platform_onset,analysis_window_end,3.0000000000,11.0000000000,30,110,80,step,True,False,True,actual_step_onset,False,step_R,step_r,left,R,young,True,replace_v3d_meta_prefilter,step_r,12.0000000000,9.0000000000
global_step,S01,1.0000000000,1,S01_v1.0_T1,0,54,2.9184560776,ok,1,0.9987093320,nmf,sklearn_nmf,platform_onset,analysis_window_end,3.0000000000,11.0000000000,30,110,80,step,True,False,True,actual_step_onset,False,step_R,step_r,left,R,young,True,replace_v3d_meta_prefilter,step_r,12.0000000000,9.0000000000
global_step,S01,1.0000000000,1,S01_v1.0_T1,0,55,2.9127509594,ok,1,0.9987093320,nmf,sklearn_nmf,platform_onset,analysis_window_end,3.0000000000,11.0000000000,30,110,80,step,True,False,True,actual_step_onset,False,step_R,step_r,left,R,young,True,replace_v3d_meta_prefilter,step_r,12.0000000000,9.0000000000
global_step,S01,1.0000000000,1,S01_v1.0_T1,0,56,2.9070458412,ok,1,0.9987093320,nmf,sklearn_nmf,platform_onset,analysis_window_end,3.0000000000,11.0000000000,30,110,80,step,True,False,True,actual_step_onset,False,step_R,step_r,left,R,young,True,replace_v3d_meta_prefilter,step_r,12.0000000000,9.0000000000
global_step,S01,1.0000000000,1,S01_v1.0_T1,0,57,2.9013407230,ok,1,0.9987093320,nmf,sklearn_nmf,platform_onset,analysis_window_end,3.0000000000,11.0000000000,30,110,80,step,True,False,True,actual_step_onset,False,step_R,step_r,left,R,young,True,replace_v3d_meta_prefilter,step_r,12.0000000000,9.0000000000
global_step,S01,1.0000000000,1,S01_v1.0_T1,0,58,2.8956356049,ok,1,0.9987093320,nmf,sklearn_nmf,platform_onset,analysis_window_end,3.0000000000,11.0000000000,30,110,80,step,True,False,True,actual_step_onset,False,step_R,step_r,left,R,young,True,replace_v3d_meta_prefilter,step_r,12.0000000000,9.0000000000
global_step,S01,1.0000000000,1,S01_v1.0_T1,0,59,2.8899304867,ok,1,0.9987093320,nmf,sklearn_nmf,platform_onset,analysis_window_end,3.0000000000,11.0000000000,30,110,80,step,True,False,True,actual_step_onset,False,step_R,step_r,left,R,young,True,replace_v3d_meta_prefilter,step_r,12.0000000000,9.0000000000
global_step,S01,1.0000000000,1,S01_v1.0_T1,0,60,2.8842253685,ok,1,0.9987093320,nmf,sklearn_nmf,platform_onset,analysis_window_end,3.0000000000,11.0000000000,30,110,80,step,True,False,True,actual_step_onset,False,step_R,step_r,left,R,young,True,replace_v3d_meta_prefilter,step_r,12.0000000000,9.0000000000
global_step,S01,1.0000000000,1,S01_v1.0_T1,0,61,2.8785202503,ok,1,0.9987093320,nmf,sklearn_nmf,platform_onset,analysis_window_end,3.0000000000,11.0000000000,30,110,80,step,True,False,True,actual_step_onset,False,step_R,step_r,left,R,young,True,replace_v3d_meta_prefilter,step_r,12.0000000000,9.0000000000
global_step,S01,1.0000000000,1,S01_v1.0_T1,0,62,2.8727357388,ok,1,0.9987093320,nmf,sklearn_nmf,platform_onset,analysis_window_end,3.0000000000,11.0000000000,30,110,80,step,True,False,True,actual_step_onset,False,step_R,step_r,left,R,young,True,replace_v3d_meta_prefilter,step_r,12.0000000000,9.0000000000
global_step,S01,1.0000000000,1,S01_v1.0_T1,0,63,2.8663947582,ok,1,0.9987093320,nmf,sklearn_nmf,platform_onset,analysis_window_end,3.0000000000,11.0000000000,30,110,80,step,True,False,True,actual_step_onset,False,step_R,step_r,left,R,young,True,replace_v3d_meta_prefilter,step_r,12.0000000000,9.0000000000
global_step,S01,1.0000000000,1,S01_v1.0_T1,0,64,2.8600537777,ok,1,0.9987093320,nmf,sklearn_nmf,platform_onset,analysis_window_end,3.0000000000,11.0000000000,30,110,80,step,True,False,True,actual_step_onset,False,step_R,step_r,left,R,young,True,replace_v3d_meta_prefilter,step_r,12.0000000000,9.0000000000
global_step,S01,1.0000000000,1,S01_v1.0_T1,0,65,2.8537127972,ok,1,0.9987093320,nmf,sklearn_nmf,platform_onset,analysis_window_end,3.0000000000,11.0000000000,30,110,80,step,True,False,True,actual_step_onset,False,step_R,step_r,left,R,young,True,replace_v3d_meta_prefilter,step_r,12.0000000000,9.0000000000
global_step,S01,1.0000000000,1,S01_v1.0_T1,0,66,2.8473720551,ok,1,0.9987093320,nmf,sklearn_nmf,platform_onset,analysis_window_end,3.0000000000,11.0000000000,30,110,80,step,True,False,True,actual_step_onset,False,step_R,step_r,left,R,young,True,replace_v3d_meta_prefilter,step_r,12.0000000000,9.0000000000
global_step,S01,1.0000000000,1,S01_v1.0_T1,0,67,2.8410310745,ok,1,0.9987093320,nmf,sklearn_nmf,platform_onset,analysis_window_end,3.0000000000,11.0000000000,30,110,80,step,True,False,True,actual_step_onset,False,step_R,step_r,left,R,young,True,replace_v3d_meta_prefilter,step_r,12.0000000000,9.0000000000
global_step,S01,1.0000000000,1,S01_v1.0_T1,0,68,2.8346900940,ok,1,0.9987093320,nmf,sklearn_nmf,platform_onset,analysis_window_end,3.0000000000,11.0000000000,30,110,80,step,True,False,True,actual_step_onset,False,step_R,step_r,left,R,young,True,replace_v3d_meta_prefilter,step_r,12.0000000000,9.0000000000
global_step,S01,1.0000000000,1,S01_v1.0_T1,0,69,2.8283493519,ok,1,0.9987093320,nmf,sklearn_nmf,platform_onset,analysis_window_end,3.0000000000,11.0000000000,30,110,80,step,True,False,True,actual_step_onset,False,step_R,step_r,left,R,young,True,replace_v3d_meta_prefilter,step_r,12.0000000000,9.0000000000
global_step,S01,1.0000000000,1,S01_v1.0_T1,0,70,2.8220083714,ok,1,0.9987093320,nmf,sklearn_nmf,platform_onset,analysis_window_end,3.0000000000,11.0000000000,30,110,80,step,True,False,True,actual_step_onset,False,step_R,step_r,left,R,young,True,replace_v3d_meta_prefilter,step_r,12.0000000000,9.0000000000
global_step,S01,1.0000000000,1,S01_v1.0_T1,0,71,2.8156673908,ok,1,0.9987093320,nmf,sklearn_nmf,platform_onset,analysis_window_end,3.0000000000,11.0000000000,30,110,80,step,True,False,True,actual_step_onset,False,step_R,step_r,left,R,young,True,replace_v3d_meta_prefilter,step_r,12.0000000000,9.0000000000
global_step,S01,1.0000000000,1,S01_v1.0_T1,0,72,2.8093264103,ok,1,0.9987093320,nmf,sklearn_nmf,platform_onset,analysis_window_end,3.0000000000,11.0000000000,30,110,80,step,True,False,True,actual_step_onset,False,step_R,step_r,left,R,young,True,replace_v3d_meta_prefilter,step_r,12.0000000000,9.0000000000
global_step,S01,1.0000000000,1,S01_v1.0_T1,0,73,2.8029856682,ok,1,0.9987093320,nmf,sklearn_nmf,platform_onset,analysis_window_end,3.0000000000,11.0000000000,30,110,80,step,True,False,True,actual_step_onset,False,step_R,step_r,left,R,young,True,replace_v3d_meta_prefilter,step_r,12.0000000000,9.0000000000
global_step,S01,1.0000000000,1,S01_v1.0_T1,0,74,2.7966446877,ok,1,0.9987093320,nmf,sklearn_nmf,platform_onset,analysis_window_end,3.0000000000,11.0000000000,30,110,80,step,True,False,True,actual_step_onset,False,step_R,step_r,left,R,young,True,replace_v3d_meta_prefilter,step_r,12.0000000000,9.0000000000
global_step,S01,1.0000000000,1,S01_v1.0_T1,0,75,2.7901959419,ok,1,0.9987093320,nmf,sklearn_nmf,platform_onset,analysis_window_end,3.0000000000,11.0000000000,30,110,80,step,True,False,True,actual_step_onset,False,step_R,step_r,left,R,young,True,replace_v3d_meta_prefilter,step_r,12.0000000000,9.0000000000
global_step,S01,1.0000000000,1,S01_v1.0_T1,0,76,2.7837114334,ok,1,0.9987093320,nmf,sklearn_nmf,platform_onset,analysis_window_end,3.0000000000,11.0000000000,30,110,80,step,True,False,True,actual_step_onset,False,step_R,step_r,left,R,young,True,replace_v3d_meta_prefilter,step_r,12.0000000000,9.0000000000
global_step,S01,1.0000000000,1,S01_v1.0_T1,0,77,2.7772269249,ok,1,0.9987093320,nmf,sklearn_nmf,platform_onset,analysis_window_end,3.0000000000,11.0000000000,30,110,80,step,True,False,True,actual_step_onset,False,step_R,step_r,left,R,young,True,replace_v3d_meta_prefilter,step_r,12.0000000000,9.0000000000
global_step,S01,1.0000000000,1,S01_v1.0_T1,0,78,2.7707421780,ok,1,0.9987093320,nmf,sklearn_nmf,platform_onset,analysis_window_end,3.0000000000,11.0000000000,30,110,80,step,True,False,True,actual_step_onset,False,step_R,step_r,left,R,young,True,replace_v3d_meta_prefilter,step_r,12.0000000000,9.0000000000
global_step,S01,1.0000000000,1,S01_v1.0_T1,0,79,2.7642576694,ok,1,0.9987093320,nmf,sklearn_nmf,platform_onset,analysis_window_end,3.0000000000,11.0000000000,30,110,80,step,True,False,True,actual_step_onset,False,step_R,step_r,left,R,young,True,replace_v3d_meta_prefilter,step_r,12.0000000000,9.0000000000
global_step,S01,1.0000000000,1,S01_v1.0_T1,0,80,2.7577731609,ok,1,0.9987093320,nmf,sklearn_nmf,platform_onset,analysis_window_end,3.0000000000,11.0000000000,30,110,80,step,True,False,True,actual_step_onset,False,step_R,step_r,left,R,young,True,replace_v3d_meta_prefilter,step_r,12.0000000000,9.0000000000
global_step,S01,1.0000000000,1,S01_v1.0_T1,0,81,2.7512884140,ok,1,0.9987093320,nmf,sklearn_nmf,platform_onset,analysis_window_end,3.0000000000,11.0000000000,30,110,80,step,True,False,True,actual_step_onset,False,step_R,step_r,left,R,young,True,replace_v3d_meta_prefilter,step_r,12.0000000000,9.0000000000
global_step,S01,1.0000000000,1,S01_v1.0_T1,0,82,2.7448039055,ok,1,0.9987093320,nmf,sklearn_nmf,platform_onset,analysis_window_end,3.0000000000,11.0000000000,30,110,80,step,True,False,True,actual_step_onset,False,step_R,step_r,left,R,young,True,replace_v3d_meta_prefilter,step_r,12.0000000000,9.0000000000
global_step,S01,1.0000000000,1,S01_v1.0_T1,0,83,2.7383193970,ok,1,0.9987093320,nmf,sklearn_nmf,platform_onset,analysis_window_end,3.0000000000,11.0000000000,30,110,80,step,True,False,True,actual_step_onset,False,step_R,step_r,left,R,young,True,replace_v3d_meta_prefilter,step_r,12.0000000000,9.0000000000
global_step,S01,1.0000000000,1,S01_v1.0_T1,0,84,2.7318348885,ok,1,0.9987093320,nmf,sklearn_nmf,platform_onset,analysis_window_end,3.0000000000,11.0000000000,30,110,80,step,True,False,True,actual_step_onset,False,step_R,step_r,left,R,young,True,replace_v3d_meta_prefilter,step_r,12.0000000000,9.0000000000
global_step,S01,1.0000000000,1,S01_v1.0_T1,0,85,2.7253501415,ok,1,0.9987093320,nmf,sklearn_nmf,platform_onset,analysis_window_end,3.0000000000,11.0000000000,30,110,80,step,True,False,True,actual_step_onset,False,step_R,step_r,left,R,young,True,replace_v3d_meta_prefilter,step_r,12.0000000000,9.0000000000
global_step,S01,1.0000000000,1,S01_v1.0_T1,0,86,2.7188656330,ok,1,0.9987093320,nmf,sklearn_nmf,platform_onset,analysis_window_end,3.0000000000,11.0000000000,30,110,80,step,True,False,True,actual_step_onset,False,step_R,step_r,left,R,young,True,replace_v3d_meta_prefilter,step_r,12.0000000000,9.0000000000
global_step,S01,1.0000000000,1,S01_v1.0_T1,0,87,2.7125155926,ok,1,0.9987093320,nmf,sklearn_nmf,platform_onset,analysis_window_end,3.0000000000,11.0000000000,30,110,80,step,True,False,True,actual_step_onset,False,step_R,step_r,left,R,young,True,replace_v3d_meta_prefilter,step_r,12.0000000000,9.0000000000
global_step,S01,1.0000000000,1,S01_v1.0_T1,0,88,2.7063901424,ok,1,0.9987093320,nmf,sklearn_nmf,platform_onset,analysis_window_end,3.0000000000,11.0000000000,30,110,80,step,True,False,True,actual_step_onset,False,step_R,step_r,left,R,young,True,replace_v3d_meta_prefilter,step_r,12.0000000000,9.0000000000
global_step,S01,1.0000000000,1,S01_v1.0_T1,0,89,2.7002646923,ok,1,0.9987093320,nmf,sklearn_nmf,platform_onset,analysis_window_end,3.0000000000,11.0000000000,30,110,80,step,True,False,True,actual_step_onset,False,step_R,step_r,left,R,young,True,replace_v3d_meta_prefilter,step_r,12.0000000000,9.0000000000
global_step,S01,1.0000000000,1,S01_v1.0_T1,0,90,2.6941392422,ok,1,0.9987093320,nmf,sklearn_nmf,platform_onset,analysis_window_end,3.0000000000,11.0000000000,30,110,80,step,True,False,True,actual_step_onset,False,step_R,step_r,left,R,young,True,replace_v3d_meta_prefilter,step_r,12.0000000000,9.0000000000
global_step,S01,1.0000000000,1,S01_v1.0_T1,0,91,2.6880137920,ok,1,0.9987093320,nmf,sklearn_nmf,platform_onset,analysis_window_end,3.0000000000,11.0000000000,30,110,80,step,True,False,True,actual_step_onset,False,step_R,step_r,left,R,young,True,replace_v3d_meta_prefilter,step_r,12.0000000000,9.0000000000
global_step,S01,1.0000000000,1,S01_v1.0_T1,0,92,2.6818883419,ok,1,0.9987093320,nmf,sklearn_nmf,platform_onset,analysis_window_end,3.0000000000,11.0000000000,30,110,80,step,True,False,True,actual_step_onset,False,step_R,step_r,left,R,young,True,replace_v3d_meta_prefilter,step_r,12.0000000000,9.0000000000
global_step,S01,1.0000000000,1,S01_v1.0_T1,0,93,2.6757628918,ok,1,0.9987093320,nmf,sklearn_nmf,platform_onset,analysis_window_end,3.0000000000,11.0000000000,30,110,80,step,True,False,True,actual_step_onset,False,step_R,step_r,left,R,young,True,replace_v3d_meta_prefilter,step_r,12.0000000000,9.0000000000
global_step,S01,1.0000000000,1,S01_v1.0_T1,0,94,2.6696374416,ok,1,0.9987093320,nmf,sklearn_nmf,platform_onset,analysis_window_end,3.0000000000,11.0000000000,30,110,80,step,True,False,True,actual_step_onset,False,step_R,step_r,left,R,young,True,replace_v3d_meta_prefilter,step_r,12.0000000000,9.0000000000
global_step,S01,1.0000000000,1,S01_v1.0_T1,0,95,2.6635117531,ok,1,0.9987093320,nmf,sklearn_nmf,platform_onset,analysis_window_end,3.0000000000,11.0000000000,30,110,80,step,True,False,True,actual_step_onset,False,step_R,step_r,left,R,young,True,replace_v3d_meta_prefilter,step_r,12.0000000000,9.0000000000
global_step,S01,1.0000000000,1,S01_v1.0_T1,0,96,2.6573863029,ok,1,0.9987093320,nmf,sklearn_nmf,platform_onset,analysis_window_end,3.0000000000,11.0000000000,30,110,80,step,True,False,True,actual_step_onset,False,step_R,step_r,left,R,young,True,replace_v3d_meta_prefilter,step_r,12.0000000000,9.0000000000
global_step,S01,1.0000000000,1,S01_v1.0_T1,0,97,2.6512608528,ok,1,0.9987093320,nmf,sklearn_nmf,platform_onset,analysis_window_end,3.0000000000,11.0000000000,30,110,80,step,True,False,True,actual_step_onset,False,step_R,step_r,left,R,young,True,replace_v3d_meta_prefilter,step_r,12.0000000000,9.0000000000
global_step,S01,1.0000000000,1,S01_v1.0_T1,0,98,2.6451354027,ok,1,0.9987093320,nmf,sklearn_nmf,platform_onset,analysis_window_end,3.0000000000,11.0000000000,30,110,80,step,True,False,True,actual_step_onset,False,step_R,step_r,left,R,young,True,replace_v3d_meta_prefilter,step_r,12.0000000000,9.0000000000
global_step,S01,1.0000000000,1,S01_v1.0_T1,0,99,2.6390099525,ok,1,0.9987093320,nmf,sklearn_nmf,platform_onset,analysis_window_end,3.0000000000,11.0000000000,30,110,80,step,True,False,True,actual_step_onset,False,step_R,step_r,left,R,young,True,replace_v3d_meta_prefilter,step_r,12.0000000000,9.0000000000
global_step,S01,1.0000000000,2,S01_v1.0_T2,0,0,3.4919428825,ok,1,0.9983802427,nmf,sklearn_nmf,platform_onset,analysis_window_end,3.0000000000,13.0000000000,30,130,100,step,True,False,True,actual_step_onset,False,step_R,step_r,left,R,young,True,replace_v3d_meta_prefilter,step_r,12.0000000000,9.0000000000
global_step,S01,1.0000000000,2,S01_v1.0_T2,0,1,3.4923150539,ok,1,0.9983802427,nmf,sklearn_nmf,platform_onset,analysis_window_end,3.0000000000,13.0000000000,30,130,100,step,True,False,True,actual_step_onset,False,step_R,step_r,left,R,young,True,replace_v3d_meta_prefilter,step_r,12.0000000000,9.0000000000
global_step,S01,1.0000000000,2,S01_v1.0_T2,0,2,3.4926874638,ok,1,0.9983802427,nmf,sklearn_nmf,platform_onset,analysis_window_end,3.0000000000,13.0000000000,30,130,100,step,True,False,True,actual_step_onset,False,step_R,step_r,left,R,young,True,replace_v3d_meta_prefilter,step_r,12.0000000000,9.0000000000
global_step,S01,1.0000000000,2,S01_v1.0_T2,0,3,3.4930596352,ok,1,0.9983802427,nmf,sklearn_nmf,platform_onset,analysis_window_end,3.0000000000,13.0000000000,30,130,100,step,True,False,True,actual_step_onset,False,step_R,step_r,left,R,young,True,replace_v3d_meta_prefilter,step_r,12.0000000000,9.0000000000
global_step,S01,1.0000000000,2,S01_v1.0_T2,0,4,3.4934318066,ok,1,0.9983802427,nmf,sklearn_nmf,platform_onset,analysis_window_end,3.0000000000,13.0000000000,30,130,100,step,True,False,True,actual_step_onset,False,step_R,step_r,left,R,young,True,replace_v3d_meta_prefilter,step_r,12.0000000000,9.0000000000
global_step,S01,1.0000000000,2,S01_v1.0_T2,0,5,3.4938042164,ok,1,0.9983802427,nmf,sklearn_nmf,platform_onset,analysis_window_end,3.0000000000,13.0000000000,30,130,100,step,True,False,True,actual_step_onset,False,step_R,step_r,left,R,young,True,replace_v3d_meta_prefilter,step_r,12.0000000000,9.0000000000
global_step,S01,1.0000000000,2,S01_v1.0_T2,0,6,3.4941763878,ok,1,0.9983802427,nmf,sklearn_nmf,platform_onset,analysis_window_end,3.0000000000,13.0000000000,30,130,100,step,True,False,True,actual_step_onset,False,step_R,step_r,left,R,young,True,replace_v3d_meta_prefilter,step_r,12.0000000000,9.0000000000
global_step,S01,1.0000000000,2,S01_v1.0_T2,0,7,3.4945485592,ok,1,0.9983802427,nmf,sklearn_nmf,platform_onset,analysis_window_end,3.0000000000,13.0000000000,30,130,100,step,True,False,True,actual_step_onset,False,step_R,step_r,left,R,young,True,replace_v3d_meta_prefilter,step_r,12.0000000000,9.0000000000
global_step,S01,1.0000000000,2,S01_v1.0_T2,0,8,3.4949209690,ok,1,0.9983802427,nmf,sklearn_nmf,platform_onset,analysis_window_end,3.0000000000,13.0000000000,30,130,100,step,True,False,True,actual_step_onset,False,step_R,step_r,left,R,young,True,replace_v3d_meta_prefilter,step_r,12.0000000000,9.0000000000
global_step,S01,1.0000000000,2,S01_v1.0_T2,0,9,3.4952931404,ok,1,0.9983802427,nmf,sklearn_nmf,platform_onset,analysis_window_end,3.0000000000,13.0000000000,30,130,100,step,True,False,True,actual_step_onset,False,step_R,step_r,left,R,young,True,replace_v3d_meta_prefilter,step_r,12.0000000000,9.0000000000
global_step,S01,1.0000000000,2,S01_v1.0_T2,0,10,3.4954392910,ok,1,0.9983802427,nmf,sklearn_nmf,platform_onset,analysis_window_end,3.0000000000,13.0000000000,30,130,100,step,True,False,True,actual_step_onset,False,step_R,step_r,left,R,young,True,replace_v3d_meta_prefilter,step_r,12.0000000000,9.0000000000
global_step,S01,1.0000000000,2,S01_v1.0_T2,0,11,3.4935517311,ok,1,0.9983802427,nmf,sklearn_nmf,platform_onset,analysis_window_end,3.0000000000,13.0000000000,30,130,100,step,True,False,True,actual_step_onset,False,step_R,step_r,left,R,young,True,replace_v3d_meta_prefilter,step_r,12.0000000000,9.0000000000
global_step,S01,1.0000000000,2,S01_v1.0_T2,0,12,3.4916641712,ok,1,0.9983802427,nmf,sklearn_nmf,platform_onset,analysis_window_end,3.0000000000,13.0000000000,30,130,100,step,True,False,True,actual_step_onset,False,step_R,step_r,left,R,young,True,replace_v3d_meta_prefilter,step_r,12.0000000000,9.0000000000
global_step,S01,1.0000000000,2,S01_v1.0_T2,0,13,3.4897763729,ok,1,0.9983802427,nmf,sklearn_nmf,platform_onset,analysis_window_end,3.0000000000,13.0000000000,30,130,100,step,True,False,True,actual_step_onset,False,step_R,step_r,left,R,young,True,replace_v3d_meta_prefilter,step_r,12.0000000000,9.0000000000
global_step,S01,1.0000000000,2,S01_v1.0_T2,0,14,3.4878888130,ok,1,0.9983802427,nmf,sklearn_nmf,platform_onset,analysis_window_end,3.0000000000,13.0000000000,30,130,100,step,True,False,True,actual_step_onset,False,step_R,step_r,left,R,young,True,replace_v3d_meta_prefilter,step_r,12.0000000000,9.0000000000
global_step,S01,1.0000000000,2,S01_v1.0_T2,0,15,3.4860012531,ok,1,0.9983802427,nmf,sklearn_nmf,platform_onset,analysis_window_end,3.0000000000,13.0000000000,30,130,100,step,True,False,True,actual_step_onset,False,step_R,step_r,left,R,young,True,replace_v3d_meta_prefilter,step_r,12.0000000000,9.0000000000
global_step,S01,1.0000000000,2,S01_v1.0_T2,0,16,3.4841136932,ok,1,0.9983802427,nmf,sklearn_nmf,platform_onset,analysis_window_end,3.0000000000,13.0000000000,30,130,100,step,True,False,True,actual_step_onset,False,step_R,step_r,left,R,young,True,replace_v3d_meta_prefilter,step_r,12.0000000000,9.0000000000
global_step,S01,1.0000000000,2,S01_v1.0_T2,0,17,3.4822258949,ok,1,0.9983802427,nmf,sklearn_nmf,platform_onset,analysis_window_end,3.0000000000,13.0000000000,30,130,100,step,True,False,True,actual_step_onset,False,step_R,step_r,left,R,young,True,replace_v3d_meta_prefilter,step_r,12.0000000000,9.0000000000
global_step,S01,1.0000000000,2,S01_v1.0_T2,0,18,3.4803383350,ok,1,0.9983802427,nmf,sklearn_nmf,platform_onset,analysis_window_end,3.0000000000,13.0000000000,30,130,100,step,True,False,True,actual_step_onset,False,step_R,step_r,left,R,young,True,replace_v3d_meta_prefilter,step_r,12.0000000000,9.0000000000
global_step,S01,1.0000000000,2,S01_v1.0_T2,0,19,3.4784507751,ok,1,0.9983802427,nmf,sklearn_nmf,platform_onset,analysis_window_end,3.0000000000,13.0000000000,30,130,100,step,True,False,True,actual_step_onset,False,step_R,step_r,left,R,young,True,replace_v3d_meta_prefilter,step_r,12.0000000000,9.0000000000
global_step,S01,1.0000000000,2,S01_v1.0_T2,0,20,3.4761447906,ok,1,0.9983802427,nmf,sklearn_nmf,platform_onset,analysis_window_end,3.0000000000,13.0000000000,30,130,100,step,True,False,True,actual_step_onset,False,step_R,step_r,left,R,young,True,replace_v3d_meta_prefilter,step_r,12.0000000000,9.0000000000
global_step,S01,1.0000000000,2,S01_v1.0_T2,0,21,3.4721653461,ok,1,0.9983802427,nmf,sklearn_nmf,platform_onset,analysis_window_end,3.0000000000,13.0000000000,30,130,100,step,True,False,True,actual_step_onset,False,step_R,step_r,left,R,young,True,replace_v3d_meta_prefilter,step_r,12.0000000000,9.0000000000
global_step,S01,1.0000000000,2,S01_v1.0_T2,0,22,3.4681856632,ok,1,0.9983802427,nmf,sklearn_nmf,platform_onset,analysis_window_end,3.0000000000,13.0000000000,30,130,100,step,True,False,True,actual_step_onset,False,step_R,step_r,left,R,young,True,replace_v3d_meta_prefilter,step_r,12.0000000000,9.0000000000
global_step,S01,1.0000000000,2,S01_v1.0_T2,0,23,3.4642062187,ok,1,0.9983802427,nmf,sklearn_nmf,platform_onset,analysis_window_end,3.0000000000,13.0000000000,30,130,100,step,True,False,True,actual_step_onset,False,step_R,step_r,left,R,young,True,replace_v3d_meta_prefilter,step_r,12.0000000000,9.0000000000
global_step,S01,1.0000000000,2,S01_v1.0_T2,0,24,3.4602267742,ok,1,0.9983802427,nmf,sklearn_nmf,platform_onset,analysis_window_end,3.0000000000,13.0000000000,30,130,100,step,True,False,True,actual_step_onset,False,step_R,step_r,left,R,young,True,replace_v3d_meta_prefilter,step_r,12.0000000000,9.0000000000
global_step,S01,1.0000000000,2,S01_v1.0_T2,0,25,3.4562473297,ok,1,0.9983802427,nmf,sklearn_nmf,platform_onset,analysis_window_end,3.0000000000,13.0000000000,30,130,100,step,True,False,True,actual_step_onset,False,step_R,step_r,left,R,young,True,replace_v3d_meta_prefilter,step_r,12.0000000000,9.0000000000
global_step,S01,1.0000000000,2,S01_v1.0_T2,0,26,3.4522676468,ok,1,0.9983802427,nmf,sklearn_nmf,platform_onset,analysis_window_end,3.0000000000,13.0000000000,30,130,100,step,True,False,True,actual_step_onset,False,step_R,step_r,left,R,young,True,replace_v3d_meta_prefilter,step_r,12.0000000000,9.0000000000
global_step,S01,1.0000000000,2,S01_v1.0_T2,0,27,3.4482882023,ok,1,0.9983802427,nmf,sklearn_nmf,platform_onset,analysis_window_end,3.0000000000,13.0000000000,30,130,100,step,True,False,True,actual_step_onset,False,step_R,step_r,left,R,young,True,replace_v3d_meta_prefilter,step_r,12.0000000000,9.0000000000
global_step,S01,1.0000000000,2,S01_v1.0_T2,0,28,3.4443087578,ok,1,0.9983802427,nmf,sklearn_nmf,platform_onset,analysis_window_end,3.0000000000,13.0000000000,30,130,100,step,True,False,True,actual_step_onset,False,step_R,step_r,left,R,young,True,replace_v3d_meta_prefilter,step_r,12.0000000000,9.0000000000
global_step,S01,1.0000000000,2,S01_v1.0_T2,0,29,3.4403293133,ok,1,0.9983802427,nmf,sklearn_nmf,platform_onset,analysis_window_end,3.0000000000,13.0000000000,30,130,100,step,True,False,True,actual_step_onset,False,step_R,step_r,left,R,young,True,replace_v3d_meta_prefilter,step_r,12.0000000000,9.0000000000
global_step,S01,1.0000000000,2,S01_v1.0_T2,0,30,3.4358191490,ok,1,0.9983802427,nmf,sklearn_nmf,platform_onset,analysis_window_end,3.0000000000,13.0000000000,30,130,100,step,True,False,True,actual_step_onset,False,step_R,step_r,left,R,young,True,replace_v3d_meta_prefilter,step_r,12.0000000000,9.0000000000
global_step,S01,1.0000000000,2,S01_v1.0_T2,0,31,3.4300711155,ok,1,0.9983802427,nmf,sklearn_nmf,platform_onset,analysis_window_end,3.0000000000,13.0000000000,30,130,100,step,True,False,True,actual_step_onset,False,step_R,step_r,left,R,young,True,replace_v3d_meta_prefilter,step_r,12.0000000000,9.0000000000
global_step,S01,1.0000000000,2,S01_v1.0_T2,0,32,3.4243228436,ok,1,0.9983802427,nmf,sklearn_nmf,platform_onset,analysis_window_end,3.0000000000,13.0000000000,30,130,100,step,True,False,True,actual_step_onset,False,step_R,step_r,left,R,young,True,replace_v3d_meta_prefilter,step_r,12.0000000000,9.0000000000
global_step,S01,1.0000000000,2,S01_v1.0_T2,0,33,3.4185748100,ok,1,0.9983802427,nmf,sklearn_nmf,platform_onset,analysis_window_end,3.0000000000,13.0000000000,30,130,100,step,True,False,True,actual_step_onset,False,step_R,step_r,left,R,young,True,replace_v3d_meta_prefilter,step_r,12.0000000000,9.0000000000
global_step,S01,1.0000000000,2,S01_v1.0_T2,0,34,3.4128265381,ok,1,0.9983802427,nmf,sklearn_nmf,platform_onset,analysis_window_end,3.0000000000,13.0000000000,30,130,100,step,True,False,True,actual_step_onset,False,step_R,step_r,left,R,young,True,replace_v3d_meta_prefilter,step_r,12.0000000000,9.0000000000
global_step,S01,1.0000000000,2,S01_v1.0_T2,0,35,3.4070785046,ok,1,0.9983802427,nmf,sklearn_nmf,platform_onset,analysis_window_end,3.0000000000,13.0000000000,30,130,100,step,True,False,True,actual_step_onset,False,step_R,step_r,left,R,young,True,replace_v3d_meta_prefilter,step_r,12.0000000000,9.0000000000
global_step,S01,1.0000000000,2,S01_v1.0_T2,0,36,3.4013302326,ok,1,0.9983802427,nmf,sklearn_nmf,platform_onset,analysis_window_end,3.0000000000,13.0000000000,30,130,100,step,True,False,True,actual_step_onset,False,step_R,step_r,left,R,young,True,replace_v3d_meta_prefilter,step_r,12.0000000000,9.0000000000
global_step,S01,1.0000000000,2,S01_v1.0_T2,0,37,3.3955821991,ok,1,0.9983802427,nmf,sklearn_nmf,platform_onset,analysis_window_end,3.0000000000,13.0000000000,30,130,100,step,True,False,True,actual_step_onset,False,step_R,step_r,left,R,young,True,replace_v3d_meta_prefilter,step_r,12.0000000000,9.0000000000
global_step,S01,1.0000000000,2,S01_v1.0_T2,0,38,3.3898339272,ok,1,0.9983802427,nmf,sklearn_nmf,platform_onset,analysis_window_end,3.0000000000,13.0000000000,30,130,100,step,True,False,True,actual_step_onset,False,step_R,step_r,left,R,young,True,replace_v3d_meta_prefilter,step_r,12.0000000000,9.0000000000
global_step,S01,1.0000000000,2,S01_v1.0_T2,0,39,3.3840858936,ok,1,0.9983802427,nmf,sklearn_nmf,platform_onset,analysis_window_end,3.0000000000,13.0000000000,30,130,100,step,True,False,True,actual_step_onset,False,step_R,step_r,left,R,young,True,replace_v3d_meta_prefilter,step_r,12.0000000000,9.0000000000
global_step,S01,1.0000000000,2,S01_v1.0_T2,0,40,3.3778119087,ok,1,0.9983802427,nmf,sklearn_nmf,platform_onset,analysis_window_end,3.0000000000,13.0000000000,30,130,100,step,True,False,True,actual_step_onset,False,step_R,step_r,left,R,young,True,replace_v3d_meta_prefilter,step_r,12.0000000000,9.0000000000
global_step,S01,1.0000000000,2,S01_v1.0_T2,0,41,3.3707494736,ok,1,0.9983802427,nmf,sklearn_nmf,platform_onset,analysis_window_end,3.0000000000,13.0000000000,30,130,100,step,True,False,True,actual_step_onset,False,step_R,step_r,left,R,young,True,replace_v3d_meta_prefilter,step_r,12.0000000000,9.0000000000
global_step,S01,1.0000000000,2,S01_v1.0_T2,0,42,3.3636870384,ok,1,0.9983802427,nmf,sklearn_nmf,platform_onset,analysis_window_end,3.0000000000,13.0000000000,30,130,100,step,True,False,True,actual_step_onset,False,step_R,step_r,left,R,young,True,replace_v3d_meta_prefilter,step_r,12.0000000000,9.0000000000
global_step,S01,1.0000000000,2,S01_v1.0_T2,0,43,3.3566243649,ok,1,0.9983802427,nmf,sklearn_nmf,platform_onset,analysis_window_end,3.0000000000,13.0000000000,30,130,100,step,True,False,True,actual_step_onset,False,step_R,step_r,left,R,young,True,replace_v3d_meta_prefilter,step_r,12.0000000000,9.0000000000
global_step,S01,1.0000000000,2,S01_v1.0_T2,0,44,3.3495619297,ok,1,0.9983802427,nmf,sklearn_nmf,platform_onset,analysis_window_end,3.0000000000,13.0000000000,30,130,100,step,True,False,True,actual_step_onset,False,step_R,step_r,left,R,young,True,replace_v3d_meta_prefilter,step_r,12.0000000000,9.0000000000
global_step,S01,1.0000000000,2,S01_v1.0_T2,0,45,3.3424994946,ok,1,0.9983802427,nmf,sklearn_nmf,platform_onset,analysis_window_end,3.0000000000,13.0000000000,30,130,100,step,True,False,True,actual_step_onset,False,step_R,step_r,left,R,young,True,replace_v3d_meta_prefilter,step_r,12.0000000000,9.0000000000
global_step,S01,1.0000000000,2,S01_v1.0_T2,0,46,3.3354370594,ok,1,0.9983802427,nmf,sklearn_nmf,platform_onset,analysis_window_end,3.0000000000,13.0000000000,30,130,100,step,True,False,True,actual_step_onset,False,step_R,step_r,left,R,young,True,replace_v3d_meta_prefilter,step_r,12.0000000000,9.0000000000
global_step,S01,1.0000000000,2,S01_v1.0_T2,0,47,3.3283746243,ok,1,0.9983802427,nmf,sklearn_nmf,platform_onset,analysis_window_end,3.0000000000,13.0000000000,30,130,100,step,True,False,True,actual_step_onset,False,step_R,step_r,left,R,young,True,replace_v3d_meta_prefilter,step_r,12.0000000000,9.0000000000
global_step,S01,1.0000000000,2,S01_v1.0_T2,0,48,3.3213119507,ok,1,0.9983802427,nmf,sklearn_nmf,platform_onset,analysis_window_end,3.0000000000,13.0000000000,30,130,100,step,True,False,True,actual_step_onset,False,step_R,step_r,left,R,young,True,replace_v3d_meta_prefilter,step_r,12.0000000000,9.0000000000
global_step,S01,1.0000000000,2,S01_v1.0_T2,0,49,3.3142495155,ok,1,0.9983802427,nmf,sklearn_nmf,platform_onset,analysis_window_end,3.0000000000,13.0000000000,30,130,100,step,True,False,True,actual_step_onset,False,step_R,step_r,left,R,young,True,replace_v3d_meta_prefilter,step_r,12.0000000000,9.0000000000
global_step,S01,1.0000000000,2,S01_v1.0_T2,0,50,3.3068058491,ok,1,0.9983802427,nmf,sklearn_nmf,platform_onset,analysis_window_end,3.0000000000,13.0000000000,30,130,100,step,True,False,True,actual_step_onset,False,step_R,step_r,left,R,young,True,replace_v3d_meta_prefilter,step_r,12.0000000000,9.0000000000
global_step,S01,1.0000000000,2,S01_v1.0_T2,0,51,3.2989809513,ok,1,0.9983802427,nmf,sklearn_nmf,platform_onset,analysis_window_end,3.0000000000,13.0000000000,30,130,100,step,True,False,True,actual_step_onset,False,step_R,step_r,left,R,young,True,replace_v3d_meta_prefilter,step_r,12.0000000000,9.0000000000
global_step,S01,1.0000000000,2,S01_v1.0_T2,0,52,3.2911558151,ok,1,0.9983802427,nmf,sklearn_nmf,platform_onset,analysis_window_end,3.0000000000,13.0000000000,30,130,100,step,True,False,True,actual_step_onset,False,step_R,step_r,left,R,young,True,replace_v3d_meta_prefilter,step_r,12.0000000000,9.0000000000
global_step,S01,1.0000000000,2,S01_v1.0_T2,0,53,3.2833309174,ok,1,0.9983802427,nmf,sklearn_nmf,platform_onset,analysis_window_end,3.0000000000,13.0000000000,30,130,100,step,True,False,True,actual_step_onset,False,step_R,step_r,left,R,young,True,replace_v3d_meta_prefilter,step_r,12.0000000000,9.0000000000
global_step,S01,1.0000000000,2,S01_v1.0_T2,0,54,3.2755060196,ok,1,0.9983802427,nmf,sklearn_nmf,platform_onset,analysis_window_end,3.0000000000,13.0000000000,30,130,100,step,True,False,True,actual_step_onset,False,step_R,step_r,left,R,young,True,replace_v3d_meta_prefilter,step_r,12.0000000000,9.0000000000
global_step,S01,1.0000000000,2,S01_v1.0_T2,0,55,3.2676808834,ok,1,0.9983802427,nmf,sklearn_nmf,platform_onset,analysis_window_end,3.0000000000,13.0000000000,30,130,100,step,True,False,True,actual_step_onset,False,step_R,step_r,left,R,young,True,replace_v3d_meta_prefilter,step_r,12.0000000000,9.0000000000
global_step,S01,1.0000000000,2,S01_v1.0_T2,0,56,3.2598559856,ok,1,0.9983802427,nmf,sklearn_nmf,platform_onset,analysis_window_end,3.0000000000,13.0000000000,30,130,100,step,True,False,True,actual_step_onset,False,step_R,step_r,left,R,young,True,replace_v3d_meta_prefilter,step_r,12.0000000000,9.0000000000
global_step,S01,1.0000000000,2,S01_v1.0_T2,0,57,3.2520310879,ok,1,0.9983802427,nmf,sklearn_nmf,platform_onset,analysis_window_end,3.0000000000,13.0000000000,30,130,100,step,True,False,True,actual_step_onset,False,step_R,step_r,left,R,young,True,replace_v3d_meta_prefilter,step_r,12.0000000000,9.0000000000
global_step,S01,1.0000000000,2,S01_v1.0_T2,0,58,3.2442059517,ok,1,0.9983802427,nmf,sklearn_nmf,platform_onset,analysis_window_end,3.0000000000,13.0000000000,30,130,100,step,True,False,True,actual_step_onset,False,step_R,step_r,left,R,young,True,replace_v3d_meta_prefilter,step_r,12.0000000000,9.0000000000
global_step,S01,1.0000000000,2,S01_v1.0_T2,0,59,3.2363810539,ok,1,0.9983802427,nmf,sklearn_nmf,platform_onset,analysis_window_end,3.0000000000,13.0000000000,30,130,100,step,True,False,True,actual_step_onset,False,step_R,step_r,left,R,young,True,replace_v3d_meta_prefilter,step_r,12.0000000000,9.0000000000
global_step,S01,1.0000000000,2,S01_v1.0_T2,0,60,3.2284636497,ok,1,0.9983802427,nmf,sklearn_nmf,platform_onset,analysis_window_end,3.0000000000,13.0000000000,30,130,100,step,True,False,True,actual_step_onset,False,step_R,step_r,left,R,young,True,replace_v3d_meta_prefilter,step_r,12.0000000000,9.0000000000
global_step,S01,1.0000000000,2,S01_v1.0_T2,0,61,3.2204847336,ok,1,0.9983802427,nmf,sklearn_nmf,platform_onset,analysis_window_end,3.0000000000,13.0000000000,30,130,100,step,True,False,True,actual_step_onset,False,step_R,step_r,left,R,young,True,replace_v3d_meta_prefilter,step_r,12.0000000000,9.0000000000
global_step,S01,1.0000000000,2,S01_v1.0_T2,0,62,3.2125055790,ok,1,0.9983802427,nmf,sklearn_nmf,platform_onset,analysis_window_end,3.0000000000,13.0000000000,30,130,100,step,True,False,True,actual_step_onset,False,step_R,step_r,left,R,young,True,replace_v3d_meta_prefilter,step_r,12.0000000000,9.0000000000
global_step,S01,1.0000000000,2,S01_v1.0_T2,0,63,3.2045266628,ok,1,0.9983802427,nmf,sklearn_nmf,platform_onset,analysis_window_end,3.0000000000,13.0000000000,30,130,100,step,True,False,True,actual_step_onset,False,step_R,step_r,left,R,young,True,replace_v3d_meta_prefilter,step_r,12.0000000000,9.0000000000
global_step,S01,1.0000000000,2,S01_v1.0_T2,0,64,3.1965475082,ok,1,0.9983802427,nmf,sklearn_nmf,platform_onset,analysis_window_end,3.0000000000,13.0000000000,30,130,100,step,True,False,True,actual_step_onset,False,step_R,step_r,left,R,young,True,replace_v3d_meta_prefilter,step_r,12.0000000000,9.0000000000
global_step,S01,1.0000000000,2,S01_v1.0_T2,0,65,3.1885685921,ok,1,0.9983802427,nmf,sklearn_nmf,platform_onset,analysis_window_end,3.0000000000,13.0000000000,30,130,100,step,True,False,True,actual_step_onset,False,step_R,step_r,left,R,young,True,replace_v3d_meta_prefilter,step_r,12.0000000000,9.0000000000
global_step,S01,1.0000000000,2,S01_v1.0_T2,0,66,3.1805894375,ok,1,0.9983802427,nmf,sklearn_nmf,platform_onset,analysis_window_end,3.0000000000,13.0000000000,30,130,100,step,True,False,True,actual_step_onset,False,step_R,step_r,left,R,young,True,replace_v3d_meta_prefilter,step_r,12.0000000000,9.0000000000
global_step,S01,1.0000000000,2,S01_v1.0_T2,0,67,3.1726105213,ok,1,0.9983802427,nmf,sklearn_nmf,platform_onset,analysis_window_end,3.0000000000,13.0000000000,30,130,100,step,True,False,True,actual_step_onset,False,step_R,step_r,left,R,young,True,replace_v3d_meta_prefilter,step_r,12.0000000000,9.0000000000
global_step,S01,1.0000000000,2,S01_v1.0_T2,0,68,3.1646313667,ok,1,0.9983802427,nmf,sklearn_nmf,platform_onset,analysis_window_end,3.0000000000,13.0000000000,30,130,100,step,True,False,True,actual_step_onset,False,step_R,step_r,left,R,young,True,replace_v3d_meta_prefilter,step_r,12.0000000000,9.0000000000
global_step,S01,1.0000000000,2,S01_v1.0_T2,0,69,3.1566524506,ok,1,0.9983802427,nmf,sklearn_nmf,platform_onset,analysis_window_end,3.0000000000,13.0000000000,30,130,100,step,True,False,True,actual_step_onset,False,step_R,step_r,left,R,young,True,replace_v3d_meta_prefilter,step_r,12.0000000000,9.0000000000
global_step,S01,1.0000000000,2,S01_v1.0_T2,0,70,3.1489994526,ok,1,0.9983802427,nmf,sklearn_nmf,platform_onset,analysis_window_end,3.0000000000,13.0000000000,30,130,100,step,True,False,True,actual_step_onset,False,step_R,step_r,left,R,young,True,replace_v3d_meta_prefilter,step_r,12.0000000000,9.0000000000
global_step,S01,1.0000000000,2,S01_v1.0_T2,0,71,3.1414861679,ok,1,0.9983802427,nmf,sklearn_nmf,platform_onset,analysis_window_end,3.0000000000,13.0000000000,30,130,100,step,True,False,True,actual_step_onset,False,step_R,step_r,left,R,young,True,replace_v3d_meta_prefilter,step_r,12.0000000000,9.0000000000
global_step,S01,1.0000000000,2,S01_v1.0_T2,0,72,3.1339728832,ok,1,0.9983802427,nmf,sklearn_nmf,platform_onset,analysis_window_end,3.0000000000,13.0000000000,30,130,100,step,True,False,True,actual_step_onset,False,step_R,step_r,left,R,young,True,replace_v3d_meta_prefilter,step_r,12.0000000000,9.0000000000
global_step,S01,1.0000000000,2,S01_v1.0_T2,0,73,3.1264595985,ok,1,0.9983802427,nmf,sklearn_nmf,platform_onset,analysis_window_end,3.0000000000,13.0000000000,30,130,100,step,True,False,True,actual_step_onset,False,step_R,step_r,left,R,young,True,replace_v3d_meta_prefilter,step_r,12.0000000000,9.0000000000
global_step,S01,1.0000000000,2,S01_v1.0_T2,0,74,3.1189463139,ok,1,0.9983802427,nmf,sklearn_nmf,platform_onset,analysis_window_end,3.0000000000,13.0000000000,30,130,100,step,True,False,True,actual_step_onset,False,step_R,step_r,left,R,young,True,replace_v3d_meta_prefilter,step_r,12.0000000000,9.0000000000
global_step,S01,1.0000000000,2,S01_v1.0_T2,0,75,3.1114330292,ok,1,0.9983802427,nmf,sklearn_nmf,platform_onset,analysis_window_end,3.0000000000,13.0000000000,30,130,100,step,True,False,True,actual_step_onset,False,step_R,step_r,left,R,young,True,replace_v3d_meta_prefilter,step_r,12.0000000000,9.0000000000
global_step,S01,1.0000000000,2,S01_v1.0_T2,0,76,3.1039197445,ok,1,0.9983802427,nmf,sklearn_nmf,platform_onset,analysis_window_end,3.0000000000,13.0000000000,30,130,100,step,True,False,True,actual_step_onset,False,step_R,step_r,left,R,young,True,replace_v3d_meta_prefilter,step_r,12.0000000000,9.0000000000
global_step,S01,1.0000000000,2,S01_v1.0_T2,0,77,3.0964064598,ok,1,0.9983802427,nmf,sklearn_nmf,platform_onset,analysis_window_end,3.0000000000,13.0000000000,30,130,100,step,True,False,True,actual_step_onset,False,step_R,step_r,left,R,young,True,replace_v3d_meta_prefilter,step_r,12.0000000000,9.0000000000
global_step,S01,1.0000000000,2,S01_v1.0_T2,0,78,3.0888934135,ok,1,0.9983802427,nmf,sklearn_nmf,platform_onset,analysis_window_end,3.0000000000,13.0000000000,30,130,100,step,True,False,True,actual_step_onset,False,step_R,step_r,left,R,young,True,replace_v3d_meta_prefilter,step_r,12.0000000000,9.0000000000
global_step,S01,1.0000000000,2,S01_v1.0_T2,0,79,3.0813801289,ok,1,0.9983802427,nmf,sklearn_nmf,platform_onset,analysis_window_end,3.0000000000,13.0000000000,30,130,100,step,True,False,True,actual_step_onset,False,step_R,step_r,left,R,young,True,replace_v3d_meta_prefilter,step_r,12.0000000000,9.0000000000
global_step,S01,1.0000000000,2,S01_v1.0_T2,0,80,3.0747075081,ok,1,0.9983802427,nmf,sklearn_nmf,platform_onset,analysis_window_end,3.0000000000,13.0000000000,30,130,100,step,True,False,True,actual_step_onset,False,step_R,step_r,left,R,young,True,replace_v3d_meta_prefilter,step_r,12.0000000000,9.0000000000
global_step,S01,1.0000000000,2,S01_v1.0_T2,0,81,3.0682451725,ok,1,0.9983802427,nmf,sklearn_nmf,platform_onset,analysis_window_end,3.0000000000,13.0000000000,30,130,100,step,True,False,True,actual_step_onset,False,step_R,step_r,left,R,young,True,replace_v3d_meta_prefilter,step_r,12.0000000000,9.0000000000
global_step,S01,1.0000000000,2,S01_v1.0_T2,0,82,3.0617828369,ok,1,0.9983802427,nmf,sklearn_nmf,platform_onset,analysis_window_end,3.0000000000,13.0000000000,30,130,100,step,True,False,True,actual_step_onset,False,step_R,step_r,left,R,young,True,replace_v3d_meta_prefilter,step_r,12.0000000000,9.0000000000
global_step,S01,1.0000000000,2,S01_v1.0_T2,0,83,3.0553205013,ok,1,0.9983802427,nmf,sklearn_nmf,platform_onset,analysis_window_end,3.0000000000,13.0000000000,30,130,100,step,True,False,True,actual_step_onset,False,step_R,step_r,left,R,young,True,replace_v3d_meta_prefilter,step_r,12.0000000000,9.0000000000
global_step,S01,1.0000000000,2,S01_v1.0_T2,0,84,3.0488581657,ok,1,0.9983802427,nmf,sklearn_nmf,platform_onset,analysis_window_end,3.0000000000,13.0000000000,30,130,100,step,True,False,True,actual_step_onset,False,step_R,step_r,left,R,young,True,replace_v3d_meta_prefilter,step_r,12.0000000000,9.0000000000
global_step,S01,1.0000000000,2,S01_v1.0_T2,0,85,3.0423958302,ok,1,0.9983802427,nmf,sklearn_nmf,platform_onset,analysis_window_end,3.0000000000,13.0000000000,30,130,100,step,True,False,True,actual_step_onset,False,step_R,step_r,left,R,young,True,replace_v3d_meta_prefilter,step_r,12.0000000000,9.0000000000
global_step,S01,1.0000000000,2,S01_v1.0_T2,0,86,3.0359334946,ok,1,0.9983802427,nmf,sklearn_nmf,platform_onset,analysis_window_end,3.0000000000,13.0000000000,30,130,100,step,True,False,True,actual_step_onset,False,step_R,step_r,left,R,young,True,replace_v3d_meta_prefilter,step_r,12.0000000000,9.0000000000
global_step,S01,1.0000000000,2,S01_v1.0_T2,0,87,3.0294711590,ok,1,0.9983802427,nmf,sklearn_nmf,platform_onset,analysis_window_end,3.0000000000,13.0000000000,30,130,100,step,True,False,True,actual_step_onset,False,step_R,step_r,left,R,young,True,replace_v3d_meta_prefilter,step_r,12.0000000000,9.0000000000
global_step,S01,1.0000000000,2,S01_v1.0_T2,0,88,3.0230088234,ok,1,0.9983802427,nmf,sklearn_nmf,platform_onset,analysis_window_end,3.0000000000,13.0000000000,30,130,100,step,True,False,True,actual_step_onset,False,step_R,step_r,left,R,young,True,replace_v3d_meta_prefilter,step_r,12.0000000000,9.0000000000
global_step,S01,1.0000000000,2,S01_v1.0_T2,0,89,3.0165464878,ok,1,0.9983802427,nmf,sklearn_nmf,platform_onset,analysis_window_end,3.0000000000,13.0000000000,30,130,100,step,True,False,True,actual_step_onset,False,step_R,step_r,left,R,young,True,replace_v3d_meta_prefilter,step_r,12.0000000000,9.0000000000
global_step,S01,1.0000000000,2,S01_v1.0_T2,0,90,3.0114867687,ok,1,0.9983802427,nmf,sklearn_nmf,platform_onset,analysis_window_end,3.0000000000,13.0000000000,30,130,100,step,True,False,True,actual_step_onset,False,step_R,step_r,left,R,young,True,replace_v3d_meta_prefilter,step_r,12.0000000000,9.0000000000
global_step,S01,1.0000000000,2,S01_v1.0_T2,0,91,3.0065829754,ok,1,0.9983802427,nmf,sklearn_nmf,platform_onset,analysis_window_end,3.0000000000,13.0000000000,30,130,100,step,True,False,True,actual_step_onset,False,step_R,step_r,left,R,young,True,replace_v3d_meta_prefilter,step_r,12.0000000000,9.0000000000
global_step,S01,1.0000000000,2,S01_v1.0_T2,0,92,3.0016789436,ok,1,0.9983802427,nmf,sklearn_nmf,platform_onset,analysis_window_end,3.0000000000,13.0000000000,30,130,100,step,True,False,True,actual_step_onset,False,step_R,step_r,left,R,young,True,replace_v3d_meta_prefilter,step_r,12.0000000000,9.0000000000
global_step,S01,1.0000000000,2,S01_v1.0_T2,0,93,2.9967751503,ok,1,0.9983802427,nmf,sklearn_nmf,platform_onset,analysis_window_end,3.0000000000,13.0000000000,30,130,100,step,True,False,True,actual_step_onset,False,step_R,step_r,left,R,young,True,replace_v3d_meta_prefilter,step_r,12.0000000000,9.0000000000
global_step,S01,1.0000000000,2,S01_v1.0_T2,0,94,2.9918711185,ok,1,0.9983802427,nmf,sklearn_nmf,platform_onset,analysis_window_end,3.0000000000,13.0000000000,30,130,100,step,True,False,True,actual_step_onset,False,step_R,step_r,left,R,young,True,replace_v3d_meta_prefilter,step_r,12.0000000000,9.0000000000
global_step,S01,1.0000000000,2,S01_v1.0_T2,0,95,2.9869673252,ok,1,0.9983802427,nmf,sklearn_nmf,platform_onset,analysis_window_end,3.0000000000,13.0000000000,30,130,100,step,True,False,True,actual_step_onset,False,step_R,step_r,left,R,young,True,replace_v3d_meta_prefilter,step_r,12.0000000000,9.0000000000
global_step,S01,1.0000000000,2,S01_v1.0_T2,0,96,2.9820632935,ok,1,0.9983802427,nmf,sklearn_nmf,platform_onset,analysis_window_end,3.0000000000,13.0000000000,30,130,100,step,True,False,True,actual_step_onset,False,step_R,step_r,left,R,young,True,replace_v3d_meta_prefilter,step_r,12.0000000000,9.0000000000
global_step,S01,1.0000000000,2,S01_v1.0_T2,0,97,2.9771595001,ok,1,0.9983802427,nmf,sklearn_nmf,platform_onset,analysis_window_end,3.0000000000,13.0000000000,30,130,100,step,True,False,True,actual_step_onset,False,step_R,step_r,left,R,young,True,replace_v3d_meta_prefilter,step_r,12.0000000000,9.0000000000
global_step,S01,1.0000000000,2,S01_v1.0_T2,0,98,2.9722554684,ok,1,0.9983802427,nmf,sklearn_nmf,platform_onset,analysis_window_end,3.0000000000,13.0000000000,30,130,100,step,True,False,True,actual_step_onset,False,step_R,step_r,left,R,young,True,replace_v3d_meta_prefilter,step_r,12.0000000000,9.0000000000
global_step,S01,1.0000000000,2,S01_v1.0_T2,0,99,2.9673516750,ok,1,0.9983802427,nmf,sklearn_nmf,platform_onset,analysis_window_end,3.0000000000,13.0000000000,30,130,100,step,True,False,True,actual_step_onset,False,step_R,step_r,left,R,young,True,replace_v3d_meta_prefilter,step_r,12.0000000000,9.0000000000
global_step,S02,1.0000000000,1,S02_v1.0_T1,0,0,6.2473373413,ok,1,0.9996904547,nmf,sklearn_nmf,platform_onset,analysis_window_end,3.0000000000,11.0000000000,30,110,80,step,True,False,True,actual_step_onset,False,step_L,step_l,right,L,young,True,replace_v3d_meta_prefilter,step_l,12.0000000000,9.0000000000
global_step,S02,1.0000000000,1,S02_v1.0_T1,0,1,6.2475128174,ok,1,0.9996904547,nmf,sklearn_nmf,platform_onset,analysis_window_end,3.0000000000,11.0000000000,30,110,80,step,True,False,True,actual_step_onset,False,step_L,step_l,right,L,young,True,replace_v3d_meta_prefilter,step_l,12.0000000000,9.0000000000
global_step,S02,1.0000000000,1,S02_v1.0_T1,0,2,6.2476887703,ok,1,0.9996904547,nmf,sklearn_nmf,platform_onset,analysis_window_end,3.0000000000,11.0000000000,30,110,80,step,True,False,True,actual_step_onset,False,step_L,step_l,right,L,young,True,replace_v3d_meta_prefilter,step_l,12.0000000000,9.0000000000
global_step,S02,1.0000000000,1,S02_v1.0_T1,0,3,6.2478642464,ok,1,0.9996904547,nmf,sklearn_nmf,platform_onset,analysis_window_end,3.0000000000,11.0000000000,30,110,80,step,True,False,True,actual_step_onset,False,step_L,step_l,right,L,young,True,replace_v3d_meta_prefilter,step_l,12.0000000000,9.0000000000
global_step,S02,1.0000000000,1,S02_v1.0_T1,0,4,6.2480397224,ok,1,0.9996904547,nmf,sklearn_nmf,platform_onset,analysis_window_end,3.0000000000,11.0000000000,30,110,80,step,True,False,True,actual_step_onset,False,step_L,step_l,right,L,young,True,replace_v3d_meta_prefilter,step_l,12.0000000000,9.0000000000
global_step,S02,1.0000000000,1,S02_v1.0_T1,0,5,6.2482156754,ok,1,0.9996904547,nmf,sklearn_nmf,platform_onset,analysis_window_end,3.0000000000,11.0000000000,30,110,80,step,True,False,True,actual_step_onset,False,step_L,step_l,right,L,young,True,replace_v3d_meta_prefilter,step_l,12.0000000000,9.0000000000
global_step,S02,1.0000000000,1,S02_v1.0_T1,0,6,6.2483911514,ok,1,0.9996904547,nmf,sklearn_nmf,platform_onset,analysis_window_end,3.0000000000,11.0000000000,30,110,80,step,True,False,True,actual_step_onset,False,step_L,step_l,right,L,young,True,replace_v3d_meta_prefilter,step_l,12.0000000000,9.0000000000
global_step,S02,1.0000000000,1,S02_v1.0_T1,0,7,6.2485666275,ok,1,0.9996904547,nmf,sklearn_nmf,platform_onset,analysis_window_end,3.0000000000,11.0000000000,30,110,80,step,True,False,True,actual_step_onset,False,step_L,step_l,right,L,young,True,replace_v3d_meta_prefilter,step_l,12.0000000000,9.0000000000
global_step,S02,1.0000000000,1,S02_v1.0_T1,0,8,6.2487425804,ok,1,0.9996904547,nmf,sklearn_nmf,platform_onset,analysis_window_end,3.0000000000,11.0000000000,30,110,80,step,True,False,True,actual_step_onset,False,step_L,step_l,right,L,young,True,replace_v3d_meta_prefilter,step_l,12.0000000000,9.0000000000
global_step,S02,1.0000000000,1,S02_v1.0_T1,0,9,6.2489180565,ok,1,0.9996904547,nmf,sklearn_nmf,platform_onset,analysis_window_end,3.0000000000,11.0000000000,30,110,80,step,True,False,True,actual_step_onset,False,step_L,step_l,right,L,young,True,replace_v3d_meta_prefilter,step_l,12.0000000000,9.0000000000
global_step,S02,1.0000000000,1,S02_v1.0_T1,0,10,6.2490935326,ok,1,0.9996904547,nmf,sklearn_nmf,platform_onset,analysis_window_end,3.0000000000,11.0000000000,30,110,80,step,True,False,True,actual_step_onset,False,step_L,step_l,right,L,young,True,replace_v3d_meta_prefilter,step_l,12.0000000000,9.0000000000
global_step,S02,1.0000000000,1,S02_v1.0_T1,0,11,6.2492694855,ok,1,0.9996904547,nmf,sklearn_nmf,platform_onset,analysis_window_end,3.0000000000,11.0000000000,30,110,80,step,True,False,True,actual_step_onset,False,step_L,step_l,right,L,young,True,replace_v3d_meta_prefilter,step_l,12.0000000000,9.0000000000
global_step,S02,1.0000000000,1,S02_v1.0_T1,0,12,6.2494449615,ok,1,0.9996904547,nmf,sklearn_nmf,platform_onset,analysis_window_end,3.0000000000,11.0000000000,30,110,80,step,True,False,True,actual_step_onset,False,step_L,step_l,right,L,young,True,replace_v3d_meta_prefilter,step_l,12.0000000000,9.0000000000
global_step,S02,1.0000000000,1,S02_v1.0_T1,0,13,6.2485098839,ok,1,0.9996904547,nmf,sklearn_nmf,platform_onset,analysis_window_end,3.0000000000,11.0000000000,30,110,80,step,True,False,True,actual_step_onset,False,step_L,step_l,right,L,young,True,replace_v3d_meta_prefilter,step_l,12.0000000000,9.0000000000
global_step,S02,1.0000000000,1,S02_v1.0_T1,0,14,6.2469086647,ok,1,0.9996904547,nmf,sklearn_nmf,platform_onset,analysis_window_end,3.0000000000,11.0000000000,30,110,80,step,True,False,True,actual_step_onset,False,step_L,step_l,right,L,young,True,replace_v3d_meta_prefilter,step_l,12.0000000000,9.0000000000
global_step,S02,1.0000000000,1,S02_v1.0_T1,0,15,6.2453074455,ok,1,0.9996904547,nmf,sklearn_nmf,platform_onset,analysis_window_end,3.0000000000,11.0000000000,30,110,80,step,True,False,True,actual_step_onset,False,step_L,step_l,right,L,young,True,replace_v3d_meta_prefilter,step_l,12.0000000000,9.0000000000
global_step,S02,1.0000000000,1,S02_v1.0_T1,0,16,6.2437062263,ok,1,0.9996904547,nmf,sklearn_nmf,platform_onset,analysis_window_end,3.0000000000,11.0000000000,30,110,80,step,True,False,True,actual_step_onset,False,step_L,step_l,right,L,young,True,replace_v3d_meta_prefilter,step_l,12.0000000000,9.0000000000
global_step,S02,1.0000000000,1,S02_v1.0_T1,0,17,6.2421050072,ok,1,0.9996904547,nmf,sklearn_nmf,platform_onset,analysis_window_end,3.0000000000,11.0000000000,30,110,80,step,True,False,True,actual_step_onset,False,step_L,step_l,right,L,young,True,replace_v3d_meta_prefilter,step_l,12.0000000000,9.0000000000
global_step,S02,1.0000000000,1,S02_v1.0_T1,0,18,6.2405037880,ok,1,0.9996904547,nmf,sklearn_nmf,platform_onset,analysis_window_end,3.0000000000,11.0000000000,30,110,80,step,True,False,True,actual_step_onset,False,step_L,step_l,right,L,young,True,replace_v3d_meta_prefilter,step_l,12.0000000000,9.0000000000
global_step,S02,1.0000000000,1,S02_v1.0_T1,0,19,6.2389025688,ok,1,0.9996904547,nmf,sklearn_nmf,platform_onset,analysis_window_end,3.0000000000,11.0000000000,30,110,80,step,True,False,True,actual_step_onset,False,step_L,step_l,right,L,young,True,replace_v3d_meta_prefilter,step_l,12.0000000000,9.0000000000
global_step,S02,1.0000000000,1,S02_v1.0_T1,0,20,6.2373013496,ok,1,0.9996904547,nmf,sklearn_nmf,platform_onset,analysis_window_end,3.0000000000,11.0000000000,30,110,80,step,True,False,True,actual_step_onset,False,step_L,step_l,right,L,young,True,replace_v3d_meta_prefilter,step_l,12.0000000000,9.0000000000
global_step,S02,1.0000000000,1,S02_v1.0_T1,0,21,6.2357001305,ok,1,0.9996904547,nmf,sklearn_nmf,platform_onset,analysis_window_end,3.0000000000,11.0000000000,30,110,80,step,True,False,True,actual_step_onset,False,step_L,step_l,right,L,young,True,replace_v3d_meta_prefilter,step_l,12.0000000000,9.0000000000
global_step,S02,1.0000000000,1,S02_v1.0_T1,0,22,6.2340989113,ok,1,0.9996904547,nmf,sklearn_nmf,platform_onset,analysis_window_end,3.0000000000,11.0000000000,30,110,80,step,True,False,True,actual_step_onset,False,step_L,step_l,right,L,young,True,replace_v3d_meta_prefilter,step_l,12.0000000000,9.0000000000
global_step,S02,1.0000000000,1,S02_v1.0_T1,0,23,6.2324976921,ok,1,0.9996904547,nmf,sklearn_nmf,platform_onset,analysis_window_end,3.0000000000,11.0000000000,30,110,80,step,True,False,True,actual_step_onset,False,step_L,step_l,right,L,young,True,replace_v3d_meta_prefilter,step_l,12.0000000000,9.0000000000
global_step,S02,1.0000000000,1,S02_v1.0_T1,0,24,6.2308964729,ok,1,0.9996904547,nmf,sklearn_nmf,platform_onset,analysis_window_end,3.0000000000,11.0000000000,30,110,80,step,True,False,True,actual_step_onset,False,step_L,step_l,right,L,young,True,replace_v3d_meta_prefilter,step_l,12.0000000000,9.0000000000
global_step,S02,1.0000000000,1,S02_v1.0_T1,0,25,6.2288866043,ok,1,0.9996904547,nmf,sklearn_nmf,platform_onset,analysis_window_end,3.0000000000,11.0000000000,30,110,80,step,True,False,True,actual_step_onset,False,step_L,step_l,right,L,young,True,replace_v3d_meta_prefilter,step_l,12.0000000000,9.0000000000
global_step,S02,1.0000000000,1,S02_v1.0_T1,0,26,6.2256507874,ok,1,0.9996904547,nmf,sklearn_nmf,platform_onset,analysis_window_end,3.0000000000,11.0000000000,30,110,80,step,True,False,True,actual_step_onset,False,step_L,step_l,right,L,young,True,replace_v3d_meta_prefilter,step_l,12.0000000000,9.0000000000
global_step,S02,1.0000000000,1,S02_v1.0_T1,0,27,6.2224144936,ok,1,0.9996904547,nmf,sklearn_nmf,platform_onset,analysis_window_end,3.0000000000,11.0000000000,30,110,80,step,True,False,True,actual_step_onset,False,step_L,step_l,right,L,young,True,replace_v3d_meta_prefilter,step_l,12.0000000000,9.0000000000
global_step,S02,1.0000000000,1,S02_v1.0_T1,0,28,6.2191786766,ok,1,0.9996904547,nmf,sklearn_nmf,platform_onset,analysis_window_end,3.0000000000,11.0000000000,30,110,80,step,True,False,True,actual_step_onset,False,step_L,step_l,right,L,young,True,replace_v3d_meta_prefilter,step_l,12.0000000000,9.0000000000
global_step,S02,1.0000000000,1,S02_v1.0_T1,0,29,6.2159423828,ok,1,0.9996904547,nmf,sklearn_nmf,platform_onset,analysis_window_end,3.0000000000,11.0000000000,30,110,80,step,True,False,True,actual_step_onset,False,step_L,step_l,right,L,young,True,replace_v3d_meta_prefilter,step_l,12.0000000000,9.0000000000
global_step,S02,1.0000000000,1,S02_v1.0_T1,0,30,6.2127065659,ok,1,0.9996904547,nmf,sklearn_nmf,platform_onset,analysis_window_end,3.0000000000,11.0000000000,30,110,80,step,True,False,True,actual_step_onset,False,step_L,step_l,right,L,young,True,replace_v3d_meta_prefilter,step_l,12.0000000000,9.0000000000
global_step,S02,1.0000000000,1,S02_v1.0_T1,0,31,6.2094702721,ok,1,0.9996904547,nmf,sklearn_nmf,platform_onset,analysis_window_end,3.0000000000,11.0000000000,30,110,80,step,True,False,True,actual_step_onset,False,step_L,step_l,right,L,young,True,replace_v3d_meta_prefilter,step_l,12.0000000000,9.0000000000
global_step,S02,1.0000000000,1,S02_v1.0_T1,0,32,6.2062344551,ok,1,0.9996904547,nmf,sklearn_nmf,platform_onset,analysis_window_end,3.0000000000,11.0000000000,30,110,80,step,True,False,True,actual_step_onset,False,step_L,step_l,right,L,young,True,replace_v3d_meta_prefilter,step_l,12.0000000000,9.0000000000
global_step,S02,1.0000000000,1,S02_v1.0_T1,0,33,6.2029981613,ok,1,0.9996904547,nmf,sklearn_nmf,platform_onset,analysis_window_end,3.0000000000,11.0000000000,30,110,80,step,True,False,True,actual_step_onset,False,step_L,step_l,right,L,young,True,replace_v3d_meta_prefilter,step_l,12.0000000000,9.0000000000
global_step,S02,1.0000000000,1,S02_v1.0_T1,0,34,6.1997623444,ok,1,0.9996904547,nmf,sklearn_nmf,platform_onset,analysis_window_end,3.0000000000,11.0000000000,30,110,80,step,True,False,True,actual_step_onset,False,step_L,step_l,right,L,young,True,replace_v3d_meta_prefilter,step_l,12.0000000000,9.0000000000
global_step,S02,1.0000000000,1,S02_v1.0_T1,0,35,6.1965260506,ok,1,0.9996904547,nmf,sklearn_nmf,platform_onset,analysis_window_end,3.0000000000,11.0000000000,30,110,80,step,True,False,True,actual_step_onset,False,step_L,step_l,right,L,young,True,replace_v3d_meta_prefilter,step_l,12.0000000000,9.0000000000
global_step,S02,1.0000000000,1,S02_v1.0_T1,0,36,6.1932902336,ok,1,0.9996904547,nmf,sklearn_nmf,platform_onset,analysis_window_end,3.0000000000,11.0000000000,30,110,80,step,True,False,True,actual_step_onset,False,step_L,step_l,right,L,young,True,replace_v3d_meta_prefilter,step_l,12.0000000000,9.0000000000
global_step,S02,1.0000000000,1,S02_v1.0_T1,0,37,6.1900539398,ok,1,0.9996904547,nmf,sklearn_nmf,platform_onset,analysis_window_end,3.0000000000,11.0000000000,30,110,80,step,True,False,True,actual_step_onset,False,step_L,step_l,right,L,young,True,replace_v3d_meta_prefilter,step_l,12.0000000000,9.0000000000
global_step,S02,1.0000000000,1,S02_v1.0_T1,0,38,6.1856174469,ok,1,0.9996904547,nmf,sklearn_nmf,platform_onset,analysis_window_end,3.0000000000,11.0000000000,30,110,80,step,True,False,True,actual_step_onset,False,step_L,step_l,right,L,young,True,replace_v3d_meta_prefilter,step_l,12.0000000000,9.0000000000
global_step,S02,1.0000000000,1,S02_v1.0_T1,0,39,6.1810092926,ok,1,0.9996904547,nmf,sklearn_nmf,platform_onset,analysis_window_end,3.0000000000,11.0000000000,30,110,80,step,True,False,True,actual_step_onset,False,step_L,step_l,right,L,young,True,replace_v3d_meta_prefilter,step_l,12.0000000000,9.0000000000
global_step,S02,1.0000000000,1,S02_v1.0_T1,0,40,6.1764011383,ok,1,0.9996904547,nmf,sklearn_nmf,platform_onset,analysis_window_end,3.0000000000,11.0000000000,30,110,80,step,True,False,True,actual_step_onset,False,step_L,step_l,right,L,young,True,replace_v3d_meta_prefilter,step_l,12.0000000000,9.0000000000
global_step,S02,1.0000000000,1,S02_v1.0_T1,0,41,6.1717934608,ok,1,0.9996904547,nmf,sklearn_nmf,platform_onset,analysis_window_end,3.0000000000,11.0000000000,30,110,80,step,True,False,True,actual_step_onset,False,step_L,step_l,right,L,young,True,replace_v3d_meta_prefilter,step_l,12.0000000000,9.0000000000
global_step,S02,1.0000000000,1,S02_v1.0_T1,0,42,6.1671853065,ok,1,0.9996904547,nmf,sklearn_nmf,platform_onset,analysis_window_end,3.0000000000,11.0000000000,30,110,80,step,True,False,True,actual_step_onset,False,step_L,step_l,right,L,young,True,replace_v3d_meta_prefilter,step_l,12.0000000000,9.0000000000
global_step,S02,1.0000000000,1,S02_v1.0_T1,0,43,6.1625771523,ok,1,0.9996904547,nmf,sklearn_nmf,platform_onset,analysis_window_end,3.0000000000,11.0000000000,30,110,80,step,True,False,True,actual_step_onset,False,step_L,step_l,right,L,young,True,replace_v3d_meta_prefilter,step_l,12.0000000000,9.0000000000
global_step,S02,1.0000000000,1,S02_v1.0_T1,0,44,6.1579689980,ok,1,0.9996904547,nmf,sklearn_nmf,platform_onset,analysis_window_end,3.0000000000,11.0000000000,30,110,80,step,True,False,True,actual_step_onset,False,step_L,step_l,right,L,young,True,replace_v3d_meta_prefilter,step_l,12.0000000000,9.0000000000
global_step,S02,1.0000000000,1,S02_v1.0_T1,0,45,6.1533608437,ok,1,0.9996904547,nmf,sklearn_nmf,platform_onset,analysis_window_end,3.0000000000,11.0000000000,30,110,80,step,True,False,True,actual_step_onset,False,step_L,step_l,right,L,young,True,replace_v3d_meta_prefilter,step_l,12.0000000000,9.0000000000
global_step,S02,1.0000000000,1,S02_v1.0_T1,0,46,6.1487526894,ok,1,0.9996904547,nmf,sklearn_nmf,platform_onset,analysis_window_end,3.0000000000,11.0000000000,30,110,80,step,True,False,True,actual_step_onset,False,step_L,step_l,right,L,young,True,replace_v3d_meta_prefilter,step_l,12.0000000000,9.0000000000
global_step,S02,1.0000000000,1,S02_v1.0_T1,0,47,6.1441450119,ok,1,0.9996904547,nmf,sklearn_nmf,platform_onset,analysis_window_end,3.0000000000,11.0000000000,30,110,80,step,True,False,True,actual_step_onset,False,step_L,step_l,right,L,young,True,replace_v3d_meta_prefilter,step_l,12.0000000000,9.0000000000
global_step,S02,1.0000000000,1,S02_v1.0_T1,0,48,6.1395368576,ok,1,0.9996904547,nmf,sklearn_nmf,platform_onset,analysis_window_end,3.0000000000,11.0000000000,30,110,80,step,True,False,True,actual_step_onset,False,step_L,step_l,right,L,young,True,replace_v3d_meta_prefilter,step_l,12.0000000000,9.0000000000
global_step,S02,1.0000000000,1,S02_v1.0_T1,0,49,6.1349287033,ok,1,0.9996904547,nmf,sklearn_nmf,platform_onset,analysis_window_end,3.0000000000,11.0000000000,30,110,80,step,True,False,True,actual_step_onset,False,step_L,step_l,right,L,young,True,replace_v3d_meta_prefilter,step_l,12.0000000000,9.0000000000
global_step,S02,1.0000000000,1,S02_v1.0_T1,0,50,6.1298170090,ok,1,0.9996904547,nmf,sklearn_nmf,platform_onset,analysis_window_end,3.0000000000,11.0000000000,30,110,80,step,True,False,True,actual_step_onset,False,step_L,step_l,right,L,young,True,replace_v3d_meta_prefilter,step_l,12.0000000000,9.0000000000
global_step,S02,1.0000000000,1,S02_v1.0_T1,0,51,6.1242017746,ok,1,0.9996904547,nmf,sklearn_nmf,platform_onset,analysis_window_end,3.0000000000,11.0000000000,30,110,80,step,True,False,True,actual_step_onset,False,step_L,step_l,right,L,young,True,replace_v3d_meta_prefilter,step_l,12.0000000000,9.0000000000
global_step,S02,1.0000000000,1,S02_v1.0_T1,0,52,6.1185865402,ok,1,0.9996904547,nmf,sklearn_nmf,platform_onset,analysis_window_end,3.0000000000,11.0000000000,30,110,80,step,True,False,True,actual_step_onset,False,step_L,step_l,right,L,young,True,replace_v3d_meta_prefilter,step_l,12.0000000000,9.0000000000
global_step,S02,1.0000000000,1,S02_v1.0_T1,0,53,6.1129717827,ok,1,0.9996904547,nmf,sklearn_nmf,platform_onset,analysis_window_end,3.0000000000,11.0000000000,30,110,80,step,True,False,True,actual_step_onset,False,step_L,step_l,right,L,young,True,replace_v3d_meta_prefilter,step_l,12.0000000000,9.0000000000
global_step,S02,1.0000000000,1,S02_v1.0_T1,0,54,6.1073565483,ok,1,0.9996904547,nmf,sklearn_nmf,platform_onset,analysis_window_end,3.0000000000,11.0000000000,30,110,80,step,True,False,True,actual_step_onset,False,step_L,step_l,right,L,young,True,replace_v3d_meta_prefilter,step_l,12.0000000000,9.0000000000
global_step,S02,1.0000000000,1,S02_v1.0_T1,0,55,6.1017413139,ok,1,0.9996904547,nmf,sklearn_nmf,platform_onset,analysis_window_end,3.0000000000,11.0000000000,30,110,80,step,True,False,True,actual_step_onset,False,step_L,step_l,right,L,young,True,replace_v3d_meta_prefilter,step_l,12.0000000000,9.0000000000
global_step,S02,1.0000000000,1,S02_v1.0_T1,0,56,6.0961260796,ok,1,0.9996904547,nmf,sklearn_nmf,platform_onset,analysis_window_end,3.0000000000,11.0000000000,30,110,80,step,True,False,True,actual_step_onset,False,step_L,step_l,right,L,young,True,replace_v3d_meta_prefilter,step_l,12.0000000000,9.0000000000
global_step,S02,1.0000000000,1,S02_v1.0_T1,0,57,6.0905108452,ok,1,0.9996904547,nmf,sklearn_nmf,platform_onset,analysis_window_end,3.0000000000,11.0000000000,30,110,80,step,True,False,True,actual_step_onset,False,step_L,step_l,right,L,young,True,replace_v3d_meta_prefilter,step_l,12.0000000000,9.0000000000
global_step,S02,1.0000000000,1,S02_v1.0_T1,0,58,6.0848956108,ok,1,0.9996904547,nmf,sklearn_nmf,platform_onset,analysis_window_end,3.0000000000,11.0000000000,30,110,80,step,True,False,True,actual_step_onset,False,step_L,step_l,right,L,young,True,replace_v3d_meta_prefilter,step_l,12.0000000000,9.0000000000
global_step,S02,1.0000000000,1,S02_v1.0_T1,0,59,6.0792808533,ok,1,0.9996904547,nmf,sklearn_nmf,platform_onset,analysis_window_end,3.0000000000,11.0000000000,30,110,80,step,True,False,True,actual_step_onset,False,step_L,step_l,right,L,young,True,replace_v3d_meta_prefilter,step_l,12.0000000000,9.0000000000
global_step,S02,1.0000000000,1,S02_v1.0_T1,0,60,6.0736656189,ok,1,0.9996904547,nmf,sklearn_nmf,platform_onset,analysis_window_end,3.0000000000,11.0000000000,30,110,80,step,True,False,True,actual_step_onset,False,step_L,step_l,right,L,young,True,replace_v3d_meta_prefilter,step_l,12.0000000000,9.0000000000
global_step,S02,1.0000000000,1,S02_v1.0_T1,0,61,6.0680503845,ok,1,0.9996904547,nmf,sklearn_nmf,platform_onset,analysis_window_end,3.0000000000,11.0000000000,30,110,80,step,True,False,True,actual_step_onset,False,step_L,step_l,right,L,young,True,replace_v3d_meta_prefilter,step_l,12.0000000000,9.0000000000
global_step,S02,1.0000000000,1,S02_v1.0_T1,0,62,6.0623641014,ok,1,0.9996904547,nmf,sklearn_nmf,platform_onset,analysis_window_end,3.0000000000,11.0000000000,30,110,80,step,True,False,True,actual_step_onset,False,step_L,step_l,right,L,young,True,replace_v3d_meta_prefilter,step_l,12.0000000000,9.0000000000
global_step,S02,1.0000000000,1,S02_v1.0_T1,0,63,6.0561814308,ok,1,0.9996904547,nmf,sklearn_nmf,platform_onset,analysis_window_end,3.0000000000,11.0000000000,30,110,80,step,True,False,True,actual_step_onset,False,step_L,step_l,right,L,young,True,replace_v3d_meta_prefilter,step_l,12.0000000000,9.0000000000
global_step,S02,1.0000000000,1,S02_v1.0_T1,0,64,6.0499987602,ok,1,0.9996904547,nmf,sklearn_nmf,platform_onset,analysis_window_end,3.0000000000,11.0000000000,30,110,80,step,True,False,True,actual_step_onset,False,step_L,step_l,right,L,young,True,replace_v3d_meta_prefilter,step_l,12.0000000000,9.0000000000
global_step,S02,1.0000000000,1,S02_v1.0_T1,0,65,6.0438160896,ok,1,0.9996904547,nmf,sklearn_nmf,platform_onset,analysis_window_end,3.0000000000,11.0000000000,30,110,80,step,True,False,True,actual_step_onset,False,step_L,step_l,right,L,young,True,replace_v3d_meta_prefilter,step_l,12.0000000000,9.0000000000
global_step,S02,1.0000000000,1,S02_v1.0_T1,0,66,6.0376334190,ok,1,0.9996904547,nmf,sklearn_nmf,platform_onset,analysis_window_end,3.0000000000,11.0000000000,30,110,80,step,True,False,True,actual_step_onset,False,step_L,step_l,right,L,young,True,replace_v3d_meta_prefilter,step_l,12.0000000000,9.0000000000
global_step,S02,1.0000000000,1,S02_v1.0_T1,0,67,6.0314507484,ok,1,0.9996904547,nmf,sklearn_nmf,platform_onset,analysis_window_end,3.0000000000,11.0000000000,30,110,80,step,True,False,True,actual_step_onset,False,step_L,step_l,right,L,young,True,replace_v3d_meta_prefilter,step_l,12.0000000000,9.0000000000
global_step,S02,1.0000000000,1,S02_v1.0_T1,0,68,6.0252680779,ok,1,0.9996904547,nmf,sklearn_nmf,platform_onset,analysis_window_end,3.0000000000,11.0000000000,30,110,80,step,True,False,True,actual_step_onset,False,step_L,step_l,right,L,young,True,replace_v3d_meta_prefilter,step_l,12.0000000000,9.0000000000
global_step,S02,1.0000000000,1,S02_v1.0_T1,0,69,6.0190854073,ok,1,0.9996904547,nmf,sklearn_nmf,platform_onset,analysis_window_end,3.0000000000,11.0000000000,30,110,80,step,True,False,True,actual_step_onset,False,step_L,step_l,right,L,young,True,replace_v3d_meta_prefilter,step_l,12.0000000000,9.0000000000
global_step,S02,1.0000000000,1,S02_v1.0_T1,0,70,6.0129027367,ok,1,0.9996904547,nmf,sklearn_nmf,platform_onset,analysis_window_end,3.0000000000,11.0000000000,30,110,80,step,True,False,True,actual_step_onset,False,step_L,step_l,right,L,young,True,replace_v3d_meta_prefilter,step_l,12.0000000000,9.0000000000
global_step,S02,1.0000000000,1,S02_v1.0_T1,0,71,6.0067200661,ok,1,0.9996904547,nmf,sklearn_nmf,platform_onset,analysis_window_end,3.0000000000,11.0000000000,30,110,80,step,True,False,True,actual_step_onset,False,step_L,step_l,right,L,young,True,replace_v3d_meta_prefilter,step_l,12.0000000000,9.0000000000
global_step,S02,1.0000000000,1,S02_v1.0_T1,0,72,6.0005373955,ok,1,0.9996904547,nmf,sklearn_nmf,platform_onset,analysis_window_end,3.0000000000,11.0000000000,30,110,80,step,True,False,True,actual_step_onset,False,step_L,step_l,right,L,young,True,replace_v3d_meta_prefilter,step_l,12.0000000000,9.0000000000
global_step,S02,1.0000000000,1,S02_v1.0_T1,0,73,5.9943547249,ok,1,0.9996904547,nmf,sklearn_nmf,platform_onset,analysis_window_end,3.0000000000,11.0000000000,30,110,80,step,True,False,True,actual_step_onset,False,step_L,step_l,right,L,young,True,replace_v3d_meta_prefilter,step_l,12.0000000000,9.0000000000
global_step,S02,1.0000000000,1,S02_v1.0_T1,0,74,5.9881720543,ok,1,0.9996904547,nmf,sklearn_nmf,platform_onset,analysis_window_end,3.0000000000,11.0000000000,30,110,80,step,True,False,True,actual_step_onset,False,step_L,step_l,right,L,young,True,replace_v3d_meta_prefilter,step_l,12.0000000000,9.0000000000
global_step,S02,1.0000000000,1,S02_v1.0_T1,0,75,5.9819245338,ok,1,0.9996904547,nmf,sklearn_nmf,platform_onset,analysis_window_end,3.0000000000,11.0000000000,30,110,80,step,True,False,True,actual_step_onset,False,step_L,step_l,right,L,young,True,replace_v3d_meta_prefilter,step_l,12.0000000000,9.0000000000
global_step,S02,1.0000000000,1,S02_v1.0_T1,0,76,5.9756560326,ok,1,0.9996904547,nmf,sklearn_nmf,platform_onset,analysis_window_end,3.0000000000,11.0000000000,30,110,80,step,True,False,True,actual_step_onset,False,step_L,step_l,right,L,young,True,replace_v3d_meta_prefilter,step_l,12.0000000000,9.0000000000
global_step,S02,1.0000000000,1,S02_v1.0_T1,0,77,5.9693870544,ok,1,0.9996904547,nmf,sklearn_nmf,platform_onset,analysis_window_end,3.0000000000,11.0000000000,30,110,80,step,True,False,True,actual_step_onset,False,step_L,step_l,right,L,young,True,replace_v3d_meta_prefilter,step_l,12.0000000000,9.0000000000
global_step,S02,1.0000000000,1,S02_v1.0_T1,0,78,5.9631185532,ok,1,0.9996904547,nmf,sklearn_nmf,platform_onset,analysis_window_end,3.0000000000,11.0000000000,30,110,80,step,True,False,True,actual_step_onset,False,step_L,step_l,right,L,young,True,replace_v3d_meta_prefilter,step_l,12.0000000000,9.0000000000
global_step,S02,1.0000000000,1,S02_v1.0_T1,0,79,5.9568495750,ok,1,0.9996904547,nmf,sklearn_nmf,platform_onset,analysis_window_end,3.0000000000,11.0000000000,30,110,80,step,True,False,True,actual_step_onset,False,step_L,step_l,right,L,young,True,replace_v3d_meta_prefilter,step_l,12.0000000000,9.0000000000
global_step,S02,1.0000000000,1,S02_v1.0_T1,0,80,5.9505810738,ok,1,0.9996904547,nmf,sklearn_nmf,platform_onset,analysis_window_end,3.0000000000,11.0000000000,30,110,80,step,True,False,True,actual_step_onset,False,step_L,step_l,right,L,young,True,replace_v3d_meta_prefilter,step_l,12.0000000000,9.0000000000
global_step,S02,1.0000000000,1,S02_v1.0_T1,0,81,5.9443125725,ok,1,0.9996904547,nmf,sklearn_nmf,platform_onset,analysis_window_end,3.0000000000,11.0000000000,30,110,80,step,True,False,True,actual_step_onset,False,step_L,step_l,right,L,young,True,replace_v3d_meta_prefilter,step_l,12.0000000000,9.0000000000
global_step,S02,1.0000000000,1,S02_v1.0_T1,0,82,5.9380435944,ok,1,0.9996904547,nmf,sklearn_nmf,platform_onset,analysis_window_end,3.0000000000,11.0000000000,30,110,80,step,True,False,True,actual_step_onset,False,step_L,step_l,right,L,young,True,replace_v3d_meta_prefilter,step_l,12.0000000000,9.0000000000
global_step,S02,1.0000000000,1,S02_v1.0_T1,0,83,5.9317750931,ok,1,0.9996904547,nmf,sklearn_nmf,platform_onset,analysis_window_end,3.0000000000,11.0000000000,30,110,80,step,True,False,True,actual_step_onset,False,step_L,step_l,right,L,young,True,replace_v3d_meta_prefilter,step_l,12.0000000000,9.0000000000
global_step,S02,1.0000000000,1,S02_v1.0_T1,0,84,5.9255061150,ok,1,0.9996904547,nmf,sklearn_nmf,platform_onset,analysis_window_end,3.0000000000,11.0000000000,30,110,80,step,True,False,True,actual_step_onset,False,step_L,step_l,right,L,young,True,replace_v3d_meta_prefilter,step_l,12.0000000000,9.0000000000
global_step,S02,1.0000000000,1,S02_v1.0_T1,0,85,5.9192376137,ok,1,0.9996904547,nmf,sklearn_nmf,platform_onset,analysis_window_end,3.0000000000,11.0000000000,30,110,80,step,True,False,True,actual_step_onset,False,step_L,step_l,right,L,young,True,replace_v3d_meta_prefilter,step_l,12.0000000000,9.0000000000
global_step,S02,1.0000000000,1,S02_v1.0_T1,0,86,5.9129691124,ok,1,0.9996904547,nmf,sklearn_nmf,platform_onset,analysis_window_end,3.0000000000,11.0000000000,30,110,80,step,True,False,True,actual_step_onset,False,step_L,step_l,right,L,young,True,replace_v3d_meta_prefilter,step_l,12.0000000000,9.0000000000
global_step,S02,1.0000000000,1,S02_v1.0_T1,0,87,5.9068508148,ok,1,0.9996904547,nmf,sklearn_nmf,platform_onset,analysis_window_end,3.0000000000,11.0000000000,30,110,80,step,True,False,True,actual_step_onset,False,step_L,step_l,right,L,young,True,replace_v3d_meta_prefilter,step_l,12.0000000000,9.0000000000
global_step,S02,1.0000000000,1,S02_v1.0_T1,0,88,5.9009842873,ok,1,0.9996904547,nmf,sklearn_nmf,platform_onset,analysis_window_end,3.0000000000,11.0000000000,30,110,80,step,True,False,True,actual_step_onset,False,step_L,step_l,right,L,young,True,replace_v3d_meta_prefilter,step_l,12.0000000000,9.0000000000
global_step,S02,1.0000000000,1,S02_v1.0_T1,0,89,5.8951177597,ok,1,0.9996904547,nmf,sklearn_nmf,platform_onset,analysis_window_end,3.0000000000,11.0000000000,30,110,80,step,True,False,True,actual_step_onset,False,step_L,step_l,right,L,young,True,replace_v3d_meta_prefilter,step_l,12.0000000000,9.0000000000
global_step,S02,1.0000000000,1,S02_v1.0_T1,0,90,5.8892507553,ok,1,0.9996904547,nmf,sklearn_nmf,platform_onset,analysis_window_end,3.0000000000,11.0000000000,30,110,80,step,True,False,True,actual_step_onset,False,step_L,step_l,right,L,young,True,replace_v3d_meta_prefilter,step_l,12.0000000000,9.0000000000
global_step,S02,1.0000000000,1,S02_v1.0_T1,0,91,5.8833842278,ok,1,0.9996904547,nmf,sklearn_nmf,platform_onset,analysis_window_end,3.0000000000,11.0000000000,30,110,80,step,True,False,True,actual_step_onset,False,step_L,step_l,right,L,young,True,replace_v3d_meta_prefilter,step_l,12.0000000000,9.0000000000
global_step,S02,1.0000000000,1,S02_v1.0_T1,0,92,5.8775177002,ok,1,0.9996904547,nmf,sklearn_nmf,platform_onset,analysis_window_end,3.0000000000,11.0000000000,30,110,80,step,True,False,True,actual_step_onset,False,step_L,step_l,right,L,young,True,replace_v3d_meta_prefilter,step_l,12.0000000000,9.0000000000
global_step,S02,1.0000000000,1,S02_v1.0_T1,0,93,5.8716511726,ok,1,0.9996904547,nmf,sklearn_nmf,platform_onset,analysis_window_end,3.0000000000,11.0000000000,30,110,80,step,True,False,True,actual_step_onset,False,step_L,step_l,right,L,young,True,replace_v3d_meta_prefilter,step_l,12.0000000000,9.0000000000
global_step,S02,1.0000000000,1,S02_v1.0_T1,0,94,5.8657841682,ok,1,0.9996904547,nmf,sklearn_nmf,platform_onset,analysis_window_end,3.0000000000,11.0000000000,30,110,80,step,True,False,True,actual_step_onset,False,step_L,step_l,right,L,young,True,replace_v3d_meta_prefilter,step_l,12.0000000000,9.0000000000
global_step,S02,1.0000000000,1,S02_v1.0_T1,0,95,5.8599176407,ok,1,0.9996904547,nmf,sklearn_nmf,platform_onset,analysis_window_end,3.0000000000,11.0000000000,30,110,80,step,True,False,True,actual_step_onset,False,step_L,step_l,right,L,young,True,replace_v3d_meta_prefilter,step_l,12.0000000000,9.0000000000
global_step,S02,1.0000000000,1,S02_v1.0_T1,0,96,5.8540511131,ok,1,0.9996904547,nmf,sklearn_nmf,platform_onset,analysis_window_end,3.0000000000,11.0000000000,30,110,80,step,True,False,True,actual_step_onset,False,step_L,step_l,right,L,young,True,replace_v3d_meta_prefilter,step_l,12.0000000000,9.0000000000
global_step,S02,1.0000000000,1,S02_v1.0_T1,0,97,5.8481845856,ok,1,0.9996904547,nmf,sklearn_nmf,platform_onset,analysis_window_end,3.0000000000,11.0000000000,30,110,80,step,True,False,True,actual_step_onset,False,step_L,step_l,right,L,young,True,replace_v3d_meta_prefilter,step_l,12.0000000000,9.0000000000
global_step,S02,1.0000000000,1,S02_v1.0_T1,0,98,5.8423175812,ok,1,0.9996904547,nmf,sklearn_nmf,platform_onset,analysis_window_end,3.0000000000,11.0000000000,30,110,80,step,True,False,True,actual_step_onset,False,step_L,step_l,right,L,young,True,replace_v3d_meta_prefilter,step_l,12.0000000000,9.0000000000
global_step,S02,1.0000000000,1,S02_v1.0_T1,0,99,5.8364510536,ok,1,0.9996904547,nmf,sklearn_nmf,platform_onset,analysis_window_end,3.0000000000,11.0000000000,30,110,80,step,True,False,True,actual_step_onset,False,step_L,step_l,right,L,young,True,replace_v3d_meta_prefilter,step_l,12.0000000000,9.0000000000
global_step,S02,1.0000000000,2,S02_v1.0_T2,0,0,6.6864113808,ok,1,0.9995557763,nmf,sklearn_nmf,platform_onset,analysis_window_end,3.0000000000,13.0000000000,30,130,100,step,True,False,True,actual_step_onset,False,step_L,step_l,right,L,young,True,replace_v3d_meta_prefilter,step_l,12.0000000000,9.0000000000
global_step,S02,1.0000000000,2,S02_v1.0_T2,0,1,6.6866049767,ok,1,0.9995557763,nmf,sklearn_nmf,platform_onset,analysis_window_end,3.0000000000,13.0000000000,30,130,100,step,True,False,True,actual_step_onset,False,step_L,step_l,right,L,young,True,replace_v3d_meta_prefilter,step_l,12.0000000000,9.0000000000
global_step,S02,1.0000000000,2,S02_v1.0_T2,0,2,6.6867980957,ok,1,0.9995557763,nmf,sklearn_nmf,platform_onset,analysis_window_end,3.0000000000,13.0000000000,30,130,100,step,True,False,True,actual_step_onset,False,step_L,step_l,right,L,young,True,replace_v3d_meta_prefilter,step_l,12.0000000000,9.0000000000
global_step,S02,1.0000000000,2,S02_v1.0_T2,0,3,6.6869916916,ok,1,0.9995557763,nmf,sklearn_nmf,platform_onset,analysis_window_end,3.0000000000,13.0000000000,30,130,100,step,True,False,True,actual_step_onset,False,step_L,step_l,right,L,young,True,replace_v3d_meta_prefilter,step_l,12.0000000000,9.0000000000
global_step,S02,1.0000000000,2,S02_v1.0_T2,0,4,6.6871848106,ok,1,0.9995557763,nmf,sklearn_nmf,platform_onset,analysis_window_end,3.0000000000,13.0000000000,30,130,100,step,True,False,True,actual_step_onset,False,step_L,step_l,right,L,young,True,replace_v3d_meta_prefilter,step_l,12.0000000000,9.0000000000
global_step,S02,1.0000000000,2,S02_v1.0_T2,0,5,6.6873784065,ok,1,0.9995557763,nmf,sklearn_nmf,platform_onset,analysis_window_end,3.0000000000,13.0000000000,30,130,100,step,True,False,True,actual_step_onset,False,step_L,step_l,right,L,young,True,replace_v3d_meta_prefilter,step_l,12.0000000000,9.0000000000
global_step,S02,1.0000000000,2,S02_v1.0_T2,0,6,6.6875715256,ok,1,0.9995557763,nmf,sklearn_nmf,platform_onset,analysis_window_end,3.0000000000,13.0000000000,30,130,100,step,True,False,True,actual_step_onset,False,step_L,step_l,right,L,young,True,replace_v3d_meta_prefilter,step_l,12.0000000000,9.0000000000
global_step,S02,1.0000000000,2,S02_v1.0_T2,0,7,6.6877651215,ok,1,0.9995557763,nmf,sklearn_nmf,platform_onset,analysis_window_end,3.0000000000,13.0000000000,30,130,100,step,True,False,True,actual_step_onset,False,step_L,step_l,right,L,young,True,replace_v3d_meta_prefilter,step_l,12.0000000000,9.0000000000
global_step,S02,1.0000000000,2,S02_v1.0_T2,0,8,6.6879582405,ok,1,0.9995557763,nmf,sklearn_nmf,platform_onset,analysis_window_end,3.0000000000,13.0000000000,30,130,100,step,True,False,True,actual_step_onset,False,step_L,step_l,right,L,young,True,replace_v3d_meta_prefilter,step_l,12.0000000000,9.0000000000
global_step,S02,1.0000000000,2,S02_v1.0_T2,0,9,6.6881518364,ok,1,0.9995557763,nmf,sklearn_nmf,platform_onset,analysis_window_end,3.0000000000,13.0000000000,30,130,100,step,True,False,True,actual_step_onset,False,step_L,step_l,right,L,young,True,replace_v3d_meta_prefilter,step_l,12.0000000000,9.0000000000
global_step,S02,1.0000000000,2,S02_v1.0_T2,0,10,6.6881246567,ok,1,0.9995557763,nmf,sklearn_nmf,platform_onset,analysis_window_end,3.0000000000,13.0000000000,30,130,100,step,True,False,True,actual_step_onset,False,step_L,step_l,right,L,young,True,replace_v3d_meta_prefilter,step_l,12.0000000000,9.0000000000
global_step,S02,1.0000000000,2,S02_v1.0_T2,0,11,6.6861109734,ok,1,0.9995557763,nmf,sklearn_nmf,platform_onset,analysis_window_end,3.0000000000,13.0000000000,30,130,100,step,True,False,True,actual_step_onset,False,step_L,step_l,right,L,young,True,replace_v3d_meta_prefilter,step_l,12.0000000000,9.0000000000
global_step,S02,1.0000000000,2,S02_v1.0_T2,0,12,6.6840972900,ok,1,0.9995557763,nmf,sklearn_nmf,platform_onset,analysis_window_end,3.0000000000,13.0000000000,30,130,100,step,True,False,True,actual_step_onset,False,step_L,step_l,right,L,young,True,replace_v3d_meta_prefilter,step_l,12.0000000000,9.0000000000
global_step,S02,1.0000000000,2,S02_v1.0_T2,0,13,6.6820836067,ok,1,0.9995557763,nmf,sklearn_nmf,platform_onset,analysis_window_end,3.0000000000,13.0000000000,30,130,100,step,True,False,True,actual_step_onset,False,step_L,step_l,right,L,young,True,replace_v3d_meta_prefilter,step_l,12.0000000000,9.0000000000
global_step,S02,1.0000000000,2,S02_v1.0_T2,0,14,6.6800699234,ok,1,0.9995557763,nmf,sklearn_nmf,platform_onset,analysis_window_end,3.0000000000,13.0000000000,30,130,100,step,True,False,True,actual_step_onset,False,step_L,step_l,right,L,young,True,replace_v3d_meta_prefilter,step_l,12.0000000000,9.0000000000
global_step,S02,1.0000000000,2,S02_v1.0_T2,0,15,6.6780567169,ok,1,0.9995557763,nmf,sklearn_nmf,platform_onset,analysis_window_end,3.0000000000,13.0000000000,30,130,100,step,True,False,True,actual_step_onset,False,step_L,step_l,right,L,young,True,replace_v3d_meta_prefilter,step_l,12.0000000000,9.0000000000
global_step,S02,1.0000000000,2,S02_v1.0_T2,0,16,6.6760430336,ok,1,0.9995557763,nmf,sklearn_nmf,platform_onset,analysis_window_end,3.0000000000,13.0000000000,30,130,100,step,True,False,True,actual_step_onset,False,step_L,step_l,right,L,young,True,replace_v3d_meta_prefilter,step_l,12.0000000000,9.0000000000
global_step,S02,1.0000000000,2,S02_v1.0_T2,0,17,6.6740293503,ok,1,0.9995557763,nmf,sklearn_nmf,platform_onset,analysis_window_end,3.0000000000,13.0000000000,30,130,100,step,True,False,True,actual_step_onset,False,step_L,step_l,right,L,young,True,replace_v3d_meta_prefilter,step_l,12.0000000000,9.0000000000
global_step,S02,1.0000000000,2,S02_v1.0_T2,0,18,6.6720156670,ok,1,0.9995557763,nmf,sklearn_nmf,platform_onset,analysis_window_end,3.0000000000,13.0000000000,30,130,100,step,True,False,True,actual_step_onset,False,step_L,step_l,right,L,young,True,replace_v3d_meta_prefilter,step_l,12.0000000000,9.0000000000
global_step,S02,1.0000000000,2,S02_v1.0_T2,0,19,6.6700019836,ok,1,0.9995557763,nmf,sklearn_nmf,platform_onset,analysis_window_end,3.0000000000,13.0000000000,30,130,100,step,True,False,True,actual_step_onset,False,step_L,step_l,right,L,young,True,replace_v3d_meta_prefilter,step_l,12.0000000000,9.0000000000
global_step,S02,1.0000000000,2,S02_v1.0_T2,0,20,6.6675829887,ok,1,0.9995557763,nmf,sklearn_nmf,platform_onset,analysis_window_end,3.0000000000,13.0000000000,30,130,100,step,True,False,True,actual_step_onset,False,step_L,step_l,right,L,young,True,replace_v3d_meta_prefilter,step_l,12.0000000000,9.0000000000
global_step,S02,1.0000000000,2,S02_v1.0_T2,0,21,6.6635408401,ok,1,0.9995557763,nmf,sklearn_nmf,platform_onset,analysis_window_end,3.0000000000,13.0000000000,30,130,100,step,True,False,True,actual_step_onset,False,step_L,step_l,right,L,young,True,replace_v3d_meta_prefilter,step_l,12.0000000000,9.0000000000
global_step,S02,1.0000000000,2,S02_v1.0_T2,0,22,6.6594986916,ok,1,0.9995557763,nmf,sklearn_nmf,platform_onset,analysis_window_end,3.0000000000,13.0000000000,30,130,100,step,True,False,True,actual_step_onset,False,step_L,step_l,right,L,young,True,replace_v3d_meta_prefilter,step_l,12.0000000000,9.0000000000
global_step,S02,1.0000000000,2,S02_v1.0_T2,0,23,6.6554565430,ok,1,0.9995557763,nmf,sklearn_nmf,platform_onset,analysis_window_end,3.0000000000,13.0000000000,30,130,100,step,True,False,True,actual_step_onset,False,step_L,step_l,right,L,young,True,replace_v3d_meta_prefilter,step_l,12.0000000000,9.0000000000
