group_id,subject,velocity,trial_num,trial_id,component_index,frame_idx,h_value,status,n_components,vaf,extractor_type,extractor_backend,extractor_torch_device,extractor_torch_dtype,analysis_window_onset_column,analysis_window_offset_column,analysis_window_start,analysis_window_end,analysis_window_start_device,analysis_window_end_device,analysis_window_duration_device_frames,analysis_step_class,analysis_is_step,analysis_is_nonstep,analysis_is_mixed_flag,analysis_window_source,analysis_window_is_surrogate,analysis_state,analysis_state_norm,analysis_stance_side,analysis_dominant_side,analysis_age_group,analysis_selected_group,analysis_selection_rule,analysis_major_step_side,analysis_subject_mean_step_onset,analysis_subject_mean_step_latency
global_nonstep,S01,1.0000000000,3,S01_v1.0_T3,0,0,3.9323296547,ok,1,0.9989956325,nmf,torchnmf,cpu,float32,platform_onset,analysis_window_end,3.0000000000,12.0000000000,30,120,90,nonstep,False,True,True,subject_mean_step_onset,True,nonstep,nonstep,left,R,young,True,replace_v3d_meta_prefilter,step_r,12.0000000000,9.0000000000
global_nonstep,S01,1.0000000000,3,S01_v1.0_T3,0,1,3.9323384762,ok,1,0.9989956325,nmf,torchnmf,cpu,float32,platform_onset,analysis_window_end,3.0000000000,12.0000000000,30,120,90,nonstep,False,True,True,subject_mean_step_onset,True,nonstep,nonstep,left,R,young,True,replace_v3d_meta_prefilter,step_r,12.0000000000,9.0000000000
global_nonstep,S01,1.0000000000,3,S01_v1.0_T3,0,2,3.9323470592,ok,1,0.9989956325,nmf,torchnmf,cpu,float32,platform_onset,analysis_window_end,3.0000000000,12.0000000000,30,120,90,nonstep,False,True,True,subject_mean_step_onset,True,nonstep,nonstep,left,R,young,True,replace_v3d_meta_prefilter,step_r,12.0000000000,9.0000000000
global_nonstep,S01,1.0000000000,3,S01_v1.0_T3,0,3,3.9323558807,ok,1,0.9989956325,nmf,torchnmf,cpu,float32,platform_onset,analysis_window_end,3.0000000000,12.0000000000,30,120,90,nonstep,False,True,True,subject_mean_step_onset,True,nonstep,nonstep,left,R,young,True,replace_v3d_meta_prefilter,step_r,12.0000000000,9.0000000000
global_nonstep,S01,1.0000000000,3,S01_v1.0_T3,0,4,3.9323644638,ok,1,0.9989956325,nmf,torchnmf,cpu,float32,platform_onset,analysis_window_end,3.0000000000,12.0000000000,30,120,90,nonstep,False,True,True,subject_mean_step_onset,True,nonstep,nonstep,left,R,young,True,replace_v3d_meta_prefilter,step_r,12.0000000000,9.0000000000
global_nonstep,S01,1.0000000000,3,S01_v1.0_T3,0,5,3.9323732853,ok,1,0.9989956325,nmf,torchnmf,cpu,float32,platform_onset,analysis_window_end,3.0000000000,12.0000000000,30,120,90,nonstep,False,True,True,subject_mean_step_onset,True,nonstep,nonstep,left,R,young,True,replace_v3d_meta_prefilter,step_r,12.0000000000,9.0000000000
global_nonstep,S01,1.0000000000,3,S01_v1.0_T3,0,6,3.9323818684,ok,1,0.9989956325,nmf,torchnmf,cpu,float32,platform_onset,analysis_window_end,3.0000000000,12.0000000000,30,120,90,nonstep,False,True,True,subject_mean_step_onset,True,nonstep,nonstep,left,R,young,True,replace_v3d_meta_prefilter,step_r,12.0000000000,9.0000000000
global_nonstep,S01,1.0000000000,3,S01_v1.0_T3,0,7,3.9323906898,ok,1,0.9989956325,nmf,torchnmf,cpu,float32,platform_onset,analysis_window_end,3.0000000000,12.0000000000,30,120,90,nonstep,False,True,True,subject_mean_step_onset,True,nonstep,nonstep,left,R,young,True,replace_v3d_meta_prefilter,step_r,12.0000000000,9.0000000000
global_nonstep,S01,1.0000000000,3,S01_v1.0_T3,0,8,3.9323992729,ok,1,0.9989956325,nmf,torchnmf,cpu,float32,platform_onset,analysis_window_end,3.0000000000,12.0000000000,30,120,90,nonstep,False,True,True,subject_mean_step_onset,True,nonstep,nonstep,left,R,young,True,replace_v3d_meta_prefilter,step_r,12.0000000000,9.0000000000
global_nonstep,S01,1.0000000000,3,S01_v1.0_T3,0,9,3.9324080944,ok,1,0.9989956325,nmf,torchnmf,cpu,float32,platform_onset,analysis_window_end,3.0000000000,12.0000000000,30,120,90,nonstep,False,True,True,subject_mean_step_onset,True,nonstep,nonstep,left,R,young,True,replace_v3d_meta_prefilter,step_r,12.0000000000,9.0000000000
global_nonstep,S01,1.0000000000,3,S01_v1.0_T3,0,10,3.9324166775,ok,1,0.9989956325,nmf,torchnmf,cpu,float32,platform_onset,analysis_window_end,3.0000000000,12.0000000000,30,120,90,nonstep,False,True,True,subject_mean_step_onset,True,nonstep,nonstep,left,R,young,True,replace_v3d_meta_prefilter,step_r,12.0000000000,9.0000000000
global_nonstep,S01,1.0000000000,3,S01_v1.0_T3,0,11,3.9324254990,ok,1,0.9989956325,nmf,torchnmf,cpu,float32,platform_onset,analysis_window_end,3.0000000000,12.0000000000,30,120,90,nonstep,False,True,True,subject_mean_step_onset,True,nonstep,nonstep,left,R,young,True,replace_v3d_meta_prefilter,step_r,12.0000000000,9.0000000000
global_nonstep,S01,1.0000000000,3,S01_v1.0_T3,0,12,3.9304931164,ok,1,0.9989956325,nmf,torchnmf,cpu,float32,platform_onset,analysis_window_end,3.0000000000,12.0000000000,30,120,90,nonstep,False,True,True,subject_mean_step_onset,True,nonstep,nonstep,left,R,young,True,replace_v3d_meta_prefilter,step_r,12.0000000000,9.0000000000
global_nonstep,S01,1.0000000000,3,S01_v1.0_T3,0,13,3.9285607338,ok,1,0.9989956325,nmf,torchnmf,cpu,float32,platform_onset,analysis_window_end,3.0000000000,12.0000000000,30,120,90,nonstep,False,True,True,subject_mean_step_onset,True,nonstep,nonstep,left,R,young,True,replace_v3d_meta_prefilter,step_r,12.0000000000,9.0000000000
global_nonstep,S01,1.0000000000,3,S01_v1.0_T3,0,14,3.9266283512,ok,1,0.9989956325,nmf,torchnmf,cpu,float32,platform_onset,analysis_window_end,3.0000000000,12.0000000000,30,120,90,nonstep,False,True,True,subject_mean_step_onset,True,nonstep,nonstep,left,R,young,True,replace_v3d_meta_prefilter,step_r,12.0000000000,9.0000000000
global_nonstep,S01,1.0000000000,3,S01_v1.0_T3,0,15,3.9246959686,ok,1,0.9989956325,nmf,torchnmf,cpu,float32,platform_onset,analysis_window_end,3.0000000000,12.0000000000,30,120,90,nonstep,False,True,True,subject_mean_step_onset,True,nonstep,nonstep,left,R,young,True,replace_v3d_meta_prefilter,step_r,12.0000000000,9.0000000000
global_nonstep,S01,1.0000000000,3,S01_v1.0_T3,0,16,3.9227635860,ok,1,0.9989956325,nmf,torchnmf,cpu,float32,platform_onset,analysis_window_end,3.0000000000,12.0000000000,30,120,90,nonstep,False,True,True,subject_mean_step_onset,True,nonstep,nonstep,left,R,young,True,replace_v3d_meta_prefilter,step_r,12.0000000000,9.0000000000
global_nonstep,S01,1.0000000000,3,S01_v1.0_T3,0,17,3.9208312035,ok,1,0.9989956325,nmf,torchnmf,cpu,float32,platform_onset,analysis_window_end,3.0000000000,12.0000000000,30,120,90,nonstep,False,True,True,subject_mean_step_onset,True,nonstep,nonstep,left,R,young,True,replace_v3d_meta_prefilter,step_r,12.0000000000,9.0000000000
global_nonstep,S01,1.0000000000,3,S01_v1.0_T3,0,18,3.9188988209,ok,1,0.9989956325,nmf,torchnmf,cpu,float32,platform_onset,analysis_window_end,3.0000000000,12.0000000000,30,120,90,nonstep,False,True,True,subject_mean_step_onset,True,nonstep,nonstep,left,R,young,True,replace_v3d_meta_prefilter,step_r,12.0000000000,9.0000000000
global_nonstep,S01,1.0000000000,3,S01_v1.0_T3,0,19,3.9169664383,ok,1,0.9989956325,nmf,torchnmf,cpu,float32,platform_onset,analysis_window_end,3.0000000000,12.0000000000,30,120,90,nonstep,False,True,True,subject_mean_step_onset,True,nonstep,nonstep,left,R,young,True,replace_v3d_meta_prefilter,step_r,12.0000000000,9.0000000000
global_nonstep,S01,1.0000000000,3,S01_v1.0_T3,0,20,3.9150340557,ok,1,0.9989956325,nmf,torchnmf,cpu,float32,platform_onset,analysis_window_end,3.0000000000,12.0000000000,30,120,90,nonstep,False,True,True,subject_mean_step_onset,True,nonstep,nonstep,left,R,young,True,replace_v3d_meta_prefilter,step_r,12.0000000000,9.0000000000
global_nonstep,S01,1.0000000000,3,S01_v1.0_T3,0,21,3.9131016731,ok,1,0.9989956325,nmf,torchnmf,cpu,float32,platform_onset,analysis_window_end,3.0000000000,12.0000000000,30,120,90,nonstep,False,True,True,subject_mean_step_onset,True,nonstep,nonstep,left,R,young,True,replace_v3d_meta_prefilter,step_r,12.0000000000,9.0000000000
global_nonstep,S01,1.0000000000,3,S01_v1.0_T3,0,22,3.9111692905,ok,1,0.9989956325,nmf,torchnmf,cpu,float32,platform_onset,analysis_window_end,3.0000000000,12.0000000000,30,120,90,nonstep,False,True,True,subject_mean_step_onset,True,nonstep,nonstep,left,R,young,True,replace_v3d_meta_prefilter,step_r,12.0000000000,9.0000000000
global_nonstep,S01,1.0000000000,3,S01_v1.0_T3,0,23,3.9074664116,ok,1,0.9989956325,nmf,torchnmf,cpu,float32,platform_onset,analysis_window_end,3.0000000000,12.0000000000,30,120,90,nonstep,False,True,True,subject_mean_step_onset,True,nonstep,nonstep,left,R,young,True,replace_v3d_meta_prefilter,step_r,12.0000000000,9.0000000000
global_nonstep,S01,1.0000000000,3,S01_v1.0_T3,0,24,3.9037635326,ok,1,0.9989956325,nmf,torchnmf,cpu,float32,platform_onset,analysis_window_end,3.0000000000,12.0000000000,30,120,90,nonstep,False,True,True,subject_mean_step_onset,True,nonstep,nonstep,left,R,young,True,replace_v3d_meta_prefilter,step_r,12.0000000000,9.0000000000
global_nonstep,S01,1.0000000000,3,S01_v1.0_T3,0,25,3.9000606537,ok,1,0.9989956325,nmf,torchnmf,cpu,float32,platform_onset,analysis_window_end,3.0000000000,12.0000000000,30,120,90,nonstep,False,True,True,subject_mean_step_onset,True,nonstep,nonstep,left,R,young,True,replace_v3d_meta_prefilter,step_r,12.0000000000,9.0000000000
global_nonstep,S01,1.0000000000,3,S01_v1.0_T3,0,26,3.8963577747,ok,1,0.9989956325,nmf,torchnmf,cpu,float32,platform_onset,analysis_window_end,3.0000000000,12.0000000000,30,120,90,nonstep,False,True,True,subject_mean_step_onset,True,nonstep,nonstep,left,R,young,True,replace_v3d_meta_prefilter,step_r,12.0000000000,9.0000000000
global_nonstep,S01,1.0000000000,3,S01_v1.0_T3,0,27,3.8926548958,ok,1,0.9989956325,nmf,torchnmf,cpu,float32,platform_onset,analysis_window_end,3.0000000000,12.0000000000,30,120,90,nonstep,False,True,True,subject_mean_step_onset,True,nonstep,nonstep,left,R,young,True,replace_v3d_meta_prefilter,step_r,12.0000000000,9.0000000000
global_nonstep,S01,1.0000000000,3,S01_v1.0_T3,0,28,3.8889522552,ok,1,0.9989956325,nmf,torchnmf,cpu,float32,platform_onset,analysis_window_end,3.0000000000,12.0000000000,30,120,90,nonstep,False,True,True,subject_mean_step_onset,True,nonstep,nonstep,left,R,young,True,replace_v3d_meta_prefilter,step_r,12.0000000000,9.0000000000
global_nonstep,S01,1.0000000000,3,S01_v1.0_T3,0,29,3.8852493763,ok,1,0.9989956325,nmf,torchnmf,cpu,float32,platform_onset,analysis_window_end,3.0000000000,12.0000000000,30,120,90,nonstep,False,True,True,subject_mean_step_onset,True,nonstep,nonstep,left,R,young,True,replace_v3d_meta_prefilter,step_r,12.0000000000,9.0000000000
global_nonstep,S01,1.0000000000,3,S01_v1.0_T3,0,30,3.8815464973,ok,1,0.9989956325,nmf,torchnmf,cpu,float32,platform_onset,analysis_window_end,3.0000000000,12.0000000000,30,120,90,nonstep,False,True,True,subject_mean_step_onset,True,nonstep,nonstep,left,R,young,True,replace_v3d_meta_prefilter,step_r,12.0000000000,9.0000000000
global_nonstep,S01,1.0000000000,3,S01_v1.0_T3,0,31,3.8778436184,ok,1,0.9989956325,nmf,torchnmf,cpu,float32,platform_onset,analysis_window_end,3.0000000000,12.0000000000,30,120,90,nonstep,False,True,True,subject_mean_step_onset,True,nonstep,nonstep,left,R,young,True,replace_v3d_meta_prefilter,step_r,12.0000000000,9.0000000000
global_nonstep,S01,1.0000000000,3,S01_v1.0_T3,0,32,3.8741407394,ok,1,0.9989956325,nmf,torchnmf,cpu,float32,platform_onset,analysis_window_end,3.0000000000,12.0000000000,30,120,90,nonstep,False,True,True,subject_mean_step_onset,True,nonstep,nonstep,left,R,young,True,replace_v3d_meta_prefilter,step_r,12.0000000000,9.0000000000
global_nonstep,S01,1.0000000000,3,S01_v1.0_T3,0,33,3.8704378605,ok,1,0.9989956325,nmf,torchnmf,cpu,float32,platform_onset,analysis_window_end,3.0000000000,12.0000000000,30,120,90,nonstep,False,True,True,subject_mean_step_onset,True,nonstep,nonstep,left,R,young,True,replace_v3d_meta_prefilter,step_r,12.0000000000,9.0000000000
global_nonstep,S01,1.0000000000,3,S01_v1.0_T3,0,34,3.8652663231,ok,1,0.9989956325,nmf,torchnmf,cpu,float32,platform_onset,analysis_window_end,3.0000000000,12.0000000000,30,120,90,nonstep,False,True,True,subject_mean_step_onset,True,nonstep,nonstep,left,R,young,True,replace_v3d_meta_prefilter,step_r,12.0000000000,9.0000000000
global_nonstep,S01,1.0000000000,3,S01_v1.0_T3,0,35,3.8600945473,ok,1,0.9989956325,nmf,torchnmf,cpu,float32,platform_onset,analysis_window_end,3.0000000000,12.0000000000,30,120,90,nonstep,False,True,True,subject_mean_step_onset,True,nonstep,nonstep,left,R,young,True,replace_v3d_meta_prefilter,step_r,12.0000000000,9.0000000000
global_nonstep,S01,1.0000000000,3,S01_v1.0_T3,0,36,3.8549230099,ok,1,0.9989956325,nmf,torchnmf,cpu,float32,platform_onset,analysis_window_end,3.0000000000,12.0000000000,30,120,90,nonstep,False,True,True,subject_mean_step_onset,True,nonstep,nonstep,left,R,young,True,replace_v3d_meta_prefilter,step_r,12.0000000000,9.0000000000
global_nonstep,S01,1.0000000000,3,S01_v1.0_T3,0,37,3.8497512341,ok,1,0.9989956325,nmf,torchnmf,cpu,float32,platform_onset,analysis_window_end,3.0000000000,12.0000000000,30,120,90,nonstep,False,True,True,subject_mean_step_onset,True,nonstep,nonstep,left,R,young,True,replace_v3d_meta_prefilter,step_r,12.0000000000,9.0000000000
global_nonstep,S01,1.0000000000,3,S01_v1.0_T3,0,38,3.8445796967,ok,1,0.9989956325,nmf,torchnmf,cpu,float32,platform_onset,analysis_window_end,3.0000000000,12.0000000000,30,120,90,nonstep,False,True,True,subject_mean_step_onset,True,nonstep,nonstep,left,R,young,True,replace_v3d_meta_prefilter,step_r,12.0000000000,9.0000000000
global_nonstep,S01,1.0000000000,3,S01_v1.0_T3,0,39,3.8394079208,ok,1,0.9989956325,nmf,torchnmf,cpu,float32,platform_onset,analysis_window_end,3.0000000000,12.0000000000,30,120,90,nonstep,False,True,True,subject_mean_step_onset,True,nonstep,nonstep,left,R,young,True,replace_v3d_meta_prefilter,step_r,12.0000000000,9.0000000000
global_nonstep,S01,1.0000000000,3,S01_v1.0_T3,0,40,3.8342363834,ok,1,0.9989956325,nmf,torchnmf,cpu,float32,platform_onset,analysis_window_end,3.0000000000,12.0000000000,30,120,90,nonstep,False,True,True,subject_mean_step_onset,True,nonstep,nonstep,left,R,young,True,replace_v3d_meta_prefilter,step_r,12.0000000000,9.0000000000
global_nonstep,S01,1.0000000000,3,S01_v1.0_T3,0,41,3.8290646076,ok,1,0.9989956325,nmf,torchnmf,cpu,float32,platform_onset,analysis_window_end,3.0000000000,12.0000000000,30,120,90,nonstep,False,True,True,subject_mean_step_onset,True,nonstep,nonstep,left,R,young,True,replace_v3d_meta_prefilter,step_r,12.0000000000,9.0000000000
global_nonstep,S01,1.0000000000,3,S01_v1.0_T3,0,42,3.8238930702,ok,1,0.9989956325,nmf,torchnmf,cpu,float32,platform_onset,analysis_window_end,3.0000000000,12.0000000000,30,120,90,nonstep,False,True,True,subject_mean_step_onset,True,nonstep,nonstep,left,R,young,True,replace_v3d_meta_prefilter,step_r,12.0000000000,9.0000000000
global_nonstep,S01,1.0000000000,3,S01_v1.0_T3,0,43,3.8187212944,ok,1,0.9989956325,nmf,torchnmf,cpu,float32,platform_onset,analysis_window_end,3.0000000000,12.0000000000,30,120,90,nonstep,False,True,True,subject_mean_step_onset,True,nonstep,nonstep,left,R,young,True,replace_v3d_meta_prefilter,step_r,12.0000000000,9.0000000000
global_nonstep,S01,1.0000000000,3,S01_v1.0_T3,0,44,3.8135497570,ok,1,0.9989956325,nmf,torchnmf,cpu,float32,platform_onset,analysis_window_end,3.0000000000,12.0000000000,30,120,90,nonstep,False,True,True,subject_mean_step_onset,True,nonstep,nonstep,left,R,young,True,replace_v3d_meta_prefilter,step_r,12.0000000000,9.0000000000
global_nonstep,S01,1.0000000000,3,S01_v1.0_T3,0,45,3.8073201180,ok,1,0.9989956325,nmf,torchnmf,cpu,float32,platform_onset,analysis_window_end,3.0000000000,12.0000000000,30,120,90,nonstep,False,True,True,subject_mean_step_onset,True,nonstep,nonstep,left,R,young,True,replace_v3d_meta_prefilter,step_r,12.0000000000,9.0000000000
global_nonstep,S01,1.0000000000,3,S01_v1.0_T3,0,46,3.8010907173,ok,1,0.9989956325,nmf,torchnmf,cpu,float32,platform_onset,analysis_window_end,3.0000000000,12.0000000000,30,120,90,nonstep,False,True,True,subject_mean_step_onset,True,nonstep,nonstep,left,R,young,True,replace_v3d_meta_prefilter,step_r,12.0000000000,9.0000000000
global_nonstep,S01,1.0000000000,3,S01_v1.0_T3,0,47,3.7948610783,ok,1,0.9989956325,nmf,torchnmf,cpu,float32,platform_onset,analysis_window_end,3.0000000000,12.0000000000,30,120,90,nonstep,False,True,True,subject_mean_step_onset,True,nonstep,nonstep,left,R,young,True,replace_v3d_meta_prefilter,step_r,12.0000000000,9.0000000000
global_nonstep,S01,1.0000000000,3,S01_v1.0_T3,0,48,3.7886314392,ok,1,0.9989956325,nmf,torchnmf,cpu,float32,platform_onset,analysis_window_end,3.0000000000,12.0000000000,30,120,90,nonstep,False,True,True,subject_mean_step_onset,True,nonstep,nonstep,left,R,young,True,replace_v3d_meta_prefilter,step_r,12.0000000000,9.0000000000
global_nonstep,S01,1.0000000000,3,S01_v1.0_T3,0,49,3.7824020386,ok,1,0.9989956325,nmf,torchnmf,cpu,float32,platform_onset,analysis_window_end,3.0000000000,12.0000000000,30,120,90,nonstep,False,True,True,subject_mean_step_onset,True,nonstep,nonstep,left,R,young,True,replace_v3d_meta_prefilter,step_r,12.0000000000,9.0000000000
global_nonstep,S01,1.0000000000,3,S01_v1.0_T3,0,50,3.7761723995,ok,1,0.9989956325,nmf,torchnmf,cpu,float32,platform_onset,analysis_window_end,3.0000000000,12.0000000000,30,120,90,nonstep,False,True,True,subject_mean_step_onset,True,nonstep,nonstep,left,R,young,True,replace_v3d_meta_prefilter,step_r,12.0000000000,9.0000000000
global_nonstep,S01,1.0000000000,3,S01_v1.0_T3,0,51,3.7699429989,ok,1,0.9989956325,nmf,torchnmf,cpu,float32,platform_onset,analysis_window_end,3.0000000000,12.0000000000,30,120,90,nonstep,False,True,True,subject_mean_step_onset,True,nonstep,nonstep,left,R,young,True,replace_v3d_meta_prefilter,step_r,12.0000000000,9.0000000000
global_nonstep,S01,1.0000000000,3,S01_v1.0_T3,0,52,3.7637133598,ok,1,0.9989956325,nmf,torchnmf,cpu,float32,platform_onset,analysis_window_end,3.0000000000,12.0000000000,30,120,90,nonstep,False,True,True,subject_mean_step_onset,True,nonstep,nonstep,left,R,young,True,replace_v3d_meta_prefilter,step_r,12.0000000000,9.0000000000
global_nonstep,S01,1.0000000000,3,S01_v1.0_T3,0,53,3.7574837208,ok,1,0.9989956325,nmf,torchnmf,cpu,float32,platform_onset,analysis_window_end,3.0000000000,12.0000000000,30,120,90,nonstep,False,True,True,subject_mean_step_onset,True,nonstep,nonstep,left,R,young,True,replace_v3d_meta_prefilter,step_r,12.0000000000,9.0000000000
global_nonstep,S01,1.0000000000,3,S01_v1.0_T3,0,54,3.7512543201,ok,1,0.9989956325,nmf,torchnmf,cpu,float32,platform_onset,analysis_window_end,3.0000000000,12.0000000000,30,120,90,nonstep,False,True,True,subject_mean_step_onset,True,nonstep,nonstep,left,R,young,True,replace_v3d_meta_prefilter,step_r,12.0000000000,9.0000000000
global_nonstep,S01,1.0000000000,3,S01_v1.0_T3,0,55,3.7450246811,ok,1,0.9989956325,nmf,torchnmf,cpu,float32,platform_onset,analysis_window_end,3.0000000000,12.0000000000,30,120,90,nonstep,False,True,True,subject_mean_step_onset,True,nonstep,nonstep,left,R,young,True,replace_v3d_meta_prefilter,step_r,12.0000000000,9.0000000000
global_nonstep,S01,1.0000000000,3,S01_v1.0_T3,0,56,3.7382264137,ok,1,0.9989956325,nmf,torchnmf,cpu,float32,platform_onset,analysis_window_end,3.0000000000,12.0000000000,30,120,90,nonstep,False,True,True,subject_mean_step_onset,True,nonstep,nonstep,left,R,young,True,replace_v3d_meta_prefilter,step_r,12.0000000000,9.0000000000
global_nonstep,S01,1.0000000000,3,S01_v1.0_T3,0,57,3.7314281464,ok,1,0.9989956325,nmf,torchnmf,cpu,float32,platform_onset,analysis_window_end,3.0000000000,12.0000000000,30,120,90,nonstep,False,True,True,subject_mean_step_onset,True,nonstep,nonstep,left,R,young,True,replace_v3d_meta_prefilter,step_r,12.0000000000,9.0000000000
global_nonstep,S01,1.0000000000,3,S01_v1.0_T3,0,58,3.7246296406,ok,1,0.9989956325,nmf,torchnmf,cpu,float32,platform_onset,analysis_window_end,3.0000000000,12.0000000000,30,120,90,nonstep,False,True,True,subject_mean_step_onset,True,nonstep,nonstep,left,R,young,True,replace_v3d_meta_prefilter,step_r,12.0000000000,9.0000000000
global_nonstep,S01,1.0000000000,3,S01_v1.0_T3,0,59,3.7178313732,ok,1,0.9989956325,nmf,torchnmf,cpu,float32,platform_onset,analysis_window_end,3.0000000000,12.0000000000,30,120,90,nonstep,False,True,True,subject_mean_step_onset,True,nonstep,nonstep,left,R,young,True,replace_v3d_meta_prefilter,step_r,12.0000000000,9.0000000000
global_nonstep,S01,1.0000000000,3,S01_v1.0_T3,0,60,3.7110331059,ok,1,0.9989956325,nmf,torchnmf,cpu,float32,platform_onset,analysis_window_end,3.0000000000,12.0000000000,30,120,90,nonstep,False,True,True,subject_mean_step_onset,True,nonstep,nonstep,left,R,young,True,replace_v3d_meta_prefilter,step_r,12.0000000000,9.0000000000
global_nonstep,S01,1.0000000000,3,S01_v1.0_T3,0,61,3.7042348385,ok,1,0.9989956325,nmf,torchnmf,cpu,float32,platform_onset,analysis_window_end,3.0000000000,12.0000000000,30,120,90,nonstep,False,True,True,subject_mean_step_onset,True,nonstep,nonstep,left,R,young,True,replace_v3d_meta_prefilter,step_r,12.0000000000,9.0000000000
global_nonstep,S01,1.0000000000,3,S01_v1.0_T3,0,62,3.6974365711,ok,1,0.9989956325,nmf,torchnmf,cpu,float32,platform_onset,analysis_window_end,3.0000000000,12.0000000000,30,120,90,nonstep,False,True,True,subject_mean_step_onset,True,nonstep,nonstep,left,R,young,True,replace_v3d_meta_prefilter,step_r,12.0000000000,9.0000000000
global_nonstep,S01,1.0000000000,3,S01_v1.0_T3,0,63,3.6906383038,ok,1,0.9989956325,nmf,torchnmf,cpu,float32,platform_onset,analysis_window_end,3.0000000000,12.0000000000,30,120,90,nonstep,False,True,True,subject_mean_step_onset,True,nonstep,nonstep,left,R,young,True,replace_v3d_meta_prefilter,step_r,12.0000000000,9.0000000000
global_nonstep,S01,1.0000000000,3,S01_v1.0_T3,0,64,3.6838397980,ok,1,0.9989956325,nmf,torchnmf,cpu,float32,platform_onset,analysis_window_end,3.0000000000,12.0000000000,30,120,90,nonstep,False,True,True,subject_mean_step_onset,True,nonstep,nonstep,left,R,young,True,replace_v3d_meta_prefilter,step_r,12.0000000000,9.0000000000
global_nonstep,S01,1.0000000000,3,S01_v1.0_T3,0,65,3.6770415306,ok,1,0.9989956325,nmf,torchnmf,cpu,float32,platform_onset,analysis_window_end,3.0000000000,12.0000000000,30,120,90,nonstep,False,True,True,subject_mean_step_onset,True,nonstep,nonstep,left,R,young,True,replace_v3d_meta_prefilter,step_r,12.0000000000,9.0000000000
global_nonstep,S01,1.0000000000,3,S01_v1.0_T3,0,66,3.6702432632,ok,1,0.9989956325,nmf,torchnmf,cpu,float32,platform_onset,analysis_window_end,3.0000000000,12.0000000000,30,120,90,nonstep,False,True,True,subject_mean_step_onset,True,nonstep,nonstep,left,R,young,True,replace_v3d_meta_prefilter,step_r,12.0000000000,9.0000000000
global_nonstep,S01,1.0000000000,3,S01_v1.0_T3,0,67,3.6634075642,ok,1,0.9989956325,nmf,torchnmf,cpu,float32,platform_onset,analysis_window_end,3.0000000000,12.0000000000,30,120,90,nonstep,False,True,True,subject_mean_step_onset,True,nonstep,nonstep,left,R,young,True,replace_v3d_meta_prefilter,step_r,12.0000000000,9.0000000000
global_nonstep,S01,1.0000000000,3,S01_v1.0_T3,0,68,3.6565721035,ok,1,0.9989956325,nmf,torchnmf,cpu,float32,platform_onset,analysis_window_end,3.0000000000,12.0000000000,30,120,90,nonstep,False,True,True,subject_mean_step_onset,True,nonstep,nonstep,left,R,young,True,replace_v3d_meta_prefilter,step_r,12.0000000000,9.0000000000
global_nonstep,S01,1.0000000000,3,S01_v1.0_T3,0,69,3.6497364044,ok,1,0.9989956325,nmf,torchnmf,cpu,float32,platform_onset,analysis_window_end,3.0000000000,12.0000000000,30,120,90,nonstep,False,True,True,subject_mean_step_onset,True,nonstep,nonstep,left,R,young,True,replace_v3d_meta_prefilter,step_r,12.0000000000,9.0000000000
global_nonstep,S01,1.0000000000,3,S01_v1.0_T3,0,70,3.6429007053,ok,1,0.9989956325,nmf,torchnmf,cpu,float32,platform_onset,analysis_window_end,3.0000000000,12.0000000000,30,120,90,nonstep,False,True,True,subject_mean_step_onset,True,nonstep,nonstep,left,R,young,True,replace_v3d_meta_prefilter,step_r,12.0000000000,9.0000000000
global_nonstep,S01,1.0000000000,3,S01_v1.0_T3,0,71,3.6360650063,ok,1,0.9989956325,nmf,torchnmf,cpu,float32,platform_onset,analysis_window_end,3.0000000000,12.0000000000,30,120,90,nonstep,False,True,True,subject_mean_step_onset,True,nonstep,nonstep,left,R,young,True,replace_v3d_meta_prefilter,step_r,12.0000000000,9.0000000000
global_nonstep,S01,1.0000000000,3,S01_v1.0_T3,0,72,3.6292295456,ok,1,0.9989956325,nmf,torchnmf,cpu,float32,platform_onset,analysis_window_end,3.0000000000,12.0000000000,30,120,90,nonstep,False,True,True,subject_mean_step_onset,True,nonstep,nonstep,left,R,young,True,replace_v3d_meta_prefilter,step_r,12.0000000000,9.0000000000
global_nonstep,S01,1.0000000000,3,S01_v1.0_T3,0,73,3.6223938465,ok,1,0.9989956325,nmf,torchnmf,cpu,float32,platform_onset,analysis_window_end,3.0000000000,12.0000000000,30,120,90,nonstep,False,True,True,subject_mean_step_onset,True,nonstep,nonstep,left,R,young,True,replace_v3d_meta_prefilter,step_r,12.0000000000,9.0000000000
global_nonstep,S01,1.0000000000,3,S01_v1.0_T3,0,74,3.6155581474,ok,1,0.9989956325,nmf,torchnmf,cpu,float32,platform_onset,analysis_window_end,3.0000000000,12.0000000000,30,120,90,nonstep,False,True,True,subject_mean_step_onset,True,nonstep,nonstep,left,R,young,True,replace_v3d_meta_prefilter,step_r,12.0000000000,9.0000000000
global_nonstep,S01,1.0000000000,3,S01_v1.0_T3,0,75,3.6087224483,ok,1,0.9989956325,nmf,torchnmf,cpu,float32,platform_onset,analysis_window_end,3.0000000000,12.0000000000,30,120,90,nonstep,False,True,True,subject_mean_step_onset,True,nonstep,nonstep,left,R,young,True,replace_v3d_meta_prefilter,step_r,12.0000000000,9.0000000000
global_nonstep,S01,1.0000000000,3,S01_v1.0_T3,0,76,3.6018869877,ok,1,0.9989956325,nmf,torchnmf,cpu,float32,platform_onset,analysis_window_end,3.0000000000,12.0000000000,30,120,90,nonstep,False,True,True,subject_mean_step_onset,True,nonstep,nonstep,left,R,young,True,replace_v3d_meta_prefilter,step_r,12.0000000000,9.0000000000
global_nonstep,S01,1.0000000000,3,S01_v1.0_T3,0,77,3.5950512886,ok,1,0.9989956325,nmf,torchnmf,cpu,float32,platform_onset,analysis_window_end,3.0000000000,12.0000000000,30,120,90,nonstep,False,True,True,subject_mean_step_onset,True,nonstep,nonstep,left,R,young,True,replace_v3d_meta_prefilter,step_r,12.0000000000,9.0000000000
global_nonstep,S01,1.0000000000,3,S01_v1.0_T3,0,78,3.5887124538,ok,1,0.9989956325,nmf,torchnmf,cpu,float32,platform_onset,analysis_window_end,3.0000000000,12.0000000000,30,120,90,nonstep,False,True,True,subject_mean_step_onset,True,nonstep,nonstep,left,R,young,True,replace_v3d_meta_prefilter,step_r,12.0000000000,9.0000000000
global_nonstep,S01,1.0000000000,3,S01_v1.0_T3,0,79,3.5823736191,ok,1,0.9989956325,nmf,torchnmf,cpu,float32,platform_onset,analysis_window_end,3.0000000000,12.0000000000,30,120,90,nonstep,False,True,True,subject_mean_step_onset,True,nonstep,nonstep,left,R,young,True,replace_v3d_meta_prefilter,step_r,12.0000000000,9.0000000000
global_nonstep,S01,1.0000000000,3,S01_v1.0_T3,0,80,3.5760347843,ok,1,0.9989956325,nmf,torchnmf,cpu,float32,platform_onset,analysis_window_end,3.0000000000,12.0000000000,30,120,90,nonstep,False,True,True,subject_mean_step_onset,True,nonstep,nonstep,left,R,young,True,replace_v3d_meta_prefilter,step_r,12.0000000000,9.0000000000
global_nonstep,S01,1.0000000000,3,S01_v1.0_T3,0,81,3.5696959496,ok,1,0.9989956325,nmf,torchnmf,cpu,float32,platform_onset,analysis_window_end,3.0000000000,12.0000000000,30,120,90,nonstep,False,True,True,subject_mean_step_onset,True,nonstep,nonstep,left,R,young,True,replace_v3d_meta_prefilter,step_r,12.0000000000,9.0000000000
global_nonstep,S01,1.0000000000,3,S01_v1.0_T3,0,82,3.5633571148,ok,1,0.9989956325,nmf,torchnmf,cpu,float32,platform_onset,analysis_window_end,3.0000000000,12.0000000000,30,120,90,nonstep,False,True,True,subject_mean_step_onset,True,nonstep,nonstep,left,R,young,True,replace_v3d_meta_prefilter,step_r,12.0000000000,9.0000000000
global_nonstep,S01,1.0000000000,3,S01_v1.0_T3,0,83,3.5570185184,ok,1,0.9989956325,nmf,torchnmf,cpu,float32,platform_onset,analysis_window_end,3.0000000000,12.0000000000,30,120,90,nonstep,False,True,True,subject_mean_step_onset,True,nonstep,nonstep,left,R,young,True,replace_v3d_meta_prefilter,step_r,12.0000000000,9.0000000000
global_nonstep,S01,1.0000000000,3,S01_v1.0_T3,0,84,3.5506796837,ok,1,0.9989956325,nmf,torchnmf,cpu,float32,platform_onset,analysis_window_end,3.0000000000,12.0000000000,30,120,90,nonstep,False,True,True,subject_mean_step_onset,True,nonstep,nonstep,left,R,young,True,replace_v3d_meta_prefilter,step_r,12.0000000000,9.0000000000
global_nonstep,S01,1.0000000000,3,S01_v1.0_T3,0,85,3.5443408489,ok,1,0.9989956325,nmf,torchnmf,cpu,float32,platform_onset,analysis_window_end,3.0000000000,12.0000000000,30,120,90,nonstep,False,True,True,subject_mean_step_onset,True,nonstep,nonstep,left,R,young,True,replace_v3d_meta_prefilter,step_r,12.0000000000,9.0000000000
global_nonstep,S01,1.0000000000,3,S01_v1.0_T3,0,86,3.5380020142,ok,1,0.9989956325,nmf,torchnmf,cpu,float32,platform_onset,analysis_window_end,3.0000000000,12.0000000000,30,120,90,nonstep,False,True,True,subject_mean_step_onset,True,nonstep,nonstep,left,R,young,True,replace_v3d_meta_prefilter,step_r,12.0000000000,9.0000000000
global_nonstep,S01,1.0000000000,3,S01_v1.0_T3,0,87,3.5316631794,ok,1,0.9989956325,nmf,torchnmf,cpu,float32,platform_onset,analysis_window_end,3.0000000000,12.0000000000,30,120,90,nonstep,False,True,True,subject_mean_step_onset,True,nonstep,nonstep,left,R,young,True,replace_v3d_meta_prefilter,step_r,12.0000000000,9.0000000000
global_nonstep,S01,1.0000000000,3,S01_v1.0_T3,0,88,3.5253243446,ok,1,0.9989956325,nmf,torchnmf,cpu,float32,platform_onset,analysis_window_end,3.0000000000,12.0000000000,30,120,90,nonstep,False,True,True,subject_mean_step_onset,True,nonstep,nonstep,left,R,young,True,replace_v3d_meta_prefilter,step_r,12.0000000000,9.0000000000
global_nonstep,S01,1.0000000000,3,S01_v1.0_T3,0,89,3.5199797153,ok,1,0.9989956325,nmf,torchnmf,cpu,float32,platform_onset,analysis_window_end,3.0000000000,12.0000000000,30,120,90,nonstep,False,True,True,subject_mean_step_onset,True,nonstep,nonstep,left,R,young,True,replace_v3d_meta_prefilter,step_r,12.0000000000,9.0000000000
global_nonstep,S01,1.0000000000,3,S01_v1.0_T3,0,90,3.5146348476,ok,1,0.9989956325,nmf,torchnmf,cpu,float32,platform_onset,analysis_window_end,3.0000000000,12.0000000000,30,120,90,nonstep,False,True,True,subject_mean_step_onset,True,nonstep,nonstep,left,R,young,True,replace_v3d_meta_prefilter,step_r,12.0000000000,9.0000000000
global_nonstep,S01,1.0000000000,3,S01_v1.0_T3,0,91,3.5092902184,ok,1,0.9989956325,nmf,torchnmf,cpu,float32,platform_onset,analysis_window_end,3.0000000000,12.0000000000,30,120,90,nonstep,False,True,True,subject_mean_step_onset,True,nonstep,nonstep,left,R,young,True,replace_v3d_meta_prefilter,step_r,12.0000000000,9.0000000000
global_nonstep,S01,1.0000000000,3,S01_v1.0_T3,0,92,3.5039455891,ok,1,0.9989956325,nmf,torchnmf,cpu,float32,platform_onset,analysis_window_end,3.0000000000,12.0000000000,30,120,90,nonstep,False,True,True,subject_mean_step_onset,True,nonstep,nonstep,left,R,young,True,replace_v3d_meta_prefilter,step_r,12.0000000000,9.0000000000
global_nonstep,S01,1.0000000000,3,S01_v1.0_T3,0,93,3.4986007214,ok,1,0.9989956325,nmf,torchnmf,cpu,float32,platform_onset,analysis_window_end,3.0000000000,12.0000000000,30,120,90,nonstep,False,True,True,subject_mean_step_onset,True,nonstep,nonstep,left,R,young,True,replace_v3d_meta_prefilter,step_r,12.0000000000,9.0000000000
global_nonstep,S01,1.0000000000,3,S01_v1.0_T3,0,94,3.4932560921,ok,1,0.9989956325,nmf,torchnmf,cpu,float32,platform_onset,analysis_window_end,3.0000000000,12.0000000000,30,120,90,nonstep,False,True,True,subject_mean_step_onset,True,nonstep,nonstep,left,R,young,True,replace_v3d_meta_prefilter,step_r,12.0000000000,9.0000000000
global_nonstep,S01,1.0000000000,3,S01_v1.0_T3,0,95,3.4879112244,ok,1,0.9989956325,nmf,torchnmf,cpu,float32,platform_onset,analysis_window_end,3.0000000000,12.0000000000,30,120,90,nonstep,False,True,True,subject_mean_step_onset,True,nonstep,nonstep,left,R,young,True,replace_v3d_meta_prefilter,step_r,12.0000000000,9.0000000000
global_nonstep,S01,1.0000000000,3,S01_v1.0_T3,0,96,3.4825665951,ok,1,0.9989956325,nmf,torchnmf,cpu,float32,platform_onset,analysis_window_end,3.0000000000,12.0000000000,30,120,90,nonstep,False,True,True,subject_mean_step_onset,True,nonstep,nonstep,left,R,young,True,replace_v3d_meta_prefilter,step_r,12.0000000000,9.0000000000
global_nonstep,S01,1.0000000000,3,S01_v1.0_T3,0,97,3.4772219658,ok,1,0.9989956325,nmf,torchnmf,cpu,float32,platform_onset,analysis_window_end,3.0000000000,12.0000000000,30,120,90,nonstep,False,True,True,subject_mean_step_onset,True,nonstep,nonstep,left,R,young,True,replace_v3d_meta_prefilter,step_r,12.0000000000,9.0000000000
global_nonstep,S01,1.0000000000,3,S01_v1.0_T3,0,98,3.4718770981,ok,1,0.9989956325,nmf,torchnmf,cpu,float32,platform_onset,analysis_window_end,3.0000000000,12.0000000000,30,120,90,nonstep,False,True,True,subject_mean_step_onset,True,nonstep,nonstep,left,R,young,True,replace_v3d_meta_prefilter,step_r,12.0000000000,9.0000000000
global_nonstep,S01,1.0000000000,3,S01_v1.0_T3,0,99,3.4665324688,ok,1,0.9989956325,nmf,torchnmf,cpu,float32,platform_onset,analysis_window_end,3.0000000000,12.0000000000,30,120,90,nonstep,False,True,True,subject_mean_step_onset,True,nonstep,nonstep,left,R,young,True,replace_v3d_meta_prefilter,step_r,12.0000000000,9.0000000000
global_nonstep,S01,1.0000000000,4,S01_v1.0_T4,0,0,4.3710355759,ok,1,0.9991866636,nmf,torchnmf,cpu,float32,platform_onset,analysis_window_end,3.0000000000,12.0000000000,30,120,90,nonstep,False,True,True,subject_mean_step_onset,True,footlift,footlift,left,R,young,True,replace_v3d_meta_prefilter,step_r,12.0000000000,9.0000000000
global_nonstep,S01,1.0000000000,4,S01_v1.0_T4,0,1,4.3710441589,ok,1,0.9991866636,nmf,torchnmf,cpu,float32,platform_onset,analysis_window_end,3.0000000000,12.0000000000,30,120,90,nonstep,False,True,True,subject_mean_step_onset,True,footlift,footlift,left,R,young,True,replace_v3d_meta_prefilter,step_r,12.0000000000,9.0000000000
global_nonstep,S01,1.0000000000,4,S01_v1.0_T4,0,2,4.3710527420,ok,1,0.9991866636,nmf,torchnmf,cpu,float32,platform_onset,analysis_window_end,3.0000000000,12.0000000000,30,120,90,nonstep,False,True,True,subject_mean_step_onset,True,footlift,footlift,left,R,young,True,replace_v3d_meta_prefilter,step_r,12.0000000000,9.0000000000
global_nonstep,S01,1.0000000000,4,S01_v1.0_T4,0,3,4.3710618019,ok,1,0.9991866636,nmf,torchnmf,cpu,float32,platform_onset,analysis_window_end,3.0000000000,12.0000000000,30,120,90,nonstep,False,True,True,subject_mean_step_onset,True,footlift,footlift,left,R,young,True,replace_v3d_meta_prefilter,step_r,12.0000000000,9.0000000000
global_nonstep,S01,1.0000000000,4,S01_v1.0_T4,0,4,4.3710703850,ok,1,0.9991866636,nmf,torchnmf,cpu,float32,platform_onset,analysis_window_end,3.0000000000,12.0000000000,30,120,90,nonstep,False,True,True,subject_mean_step_onset,True,footlift,footlift,left,R,young,True,replace_v3d_meta_prefilter,step_r,12.0000000000,9.0000000000
global_nonstep,S01,1.0000000000,4,S01_v1.0_T4,0,5,4.3710789680,ok,1,0.9991866636,nmf,torchnmf,cpu,float32,platform_onset,analysis_window_end,3.0000000000,12.0000000000,30,120,90,nonstep,False,True,True,subject_mean_step_onset,True,footlift,footlift,left,R,young,True,replace_v3d_meta_prefilter,step_r,12.0000000000,9.0000000000
global_nonstep,S01,1.0000000000,4,S01_v1.0_T4,0,6,4.3710875511,ok,1,0.9991866636,nmf,torchnmf,cpu,float32,platform_onset,analysis_window_end,3.0000000000,12.0000000000,30,120,90,nonstep,False,True,True,subject_mean_step_onset,True,footlift,footlift,left,R,young,True,replace_v3d_meta_prefilter,step_r,12.0000000000,9.0000000000
global_nonstep,S01,1.0000000000,4,S01_v1.0_T4,0,7,4.3710961342,ok,1,0.9991866636,nmf,torchnmf,cpu,float32,platform_onset,analysis_window_end,3.0000000000,12.0000000000,30,120,90,nonstep,False,True,True,subject_mean_step_onset,True,footlift,footlift,left,R,young,True,replace_v3d_meta_prefilter,step_r,12.0000000000,9.0000000000
global_nonstep,S01,1.0000000000,4,S01_v1.0_T4,0,8,4.3711047173,ok,1,0.9991866636,nmf,torchnmf,cpu,float32,platform_onset,analysis_window_end,3.0000000000,12.0000000000,30,120,90,nonstep,False,True,True,subject_mean_step_onset,True,footlift,footlift,left,R,young,True,replace_v3d_meta_prefilter,step_r,12.0000000000,9.0000000000
global_nonstep,S01,1.0000000000,4,S01_v1.0_T4,0,9,4.3711137772,ok,1,0.9991866636,nmf,torchnmf,cpu,float32,platform_onset,analysis_window_end,3.0000000000,12.0000000000,30,120,90,nonstep,False,True,True,subject_mean_step_onset,True,footlift,footlift,left,R,young,True,replace_v3d_meta_prefilter,step_r,12.0000000000,9.0000000000
global_nonstep,S01,1.0000000000,4,S01_v1.0_T4,0,10,4.3711223602,ok,1,0.9991866636,nmf,torchnmf,cpu,float32,platform_onset,analysis_window_end,3.0000000000,12.0000000000,30,120,90,nonstep,False,True,True,subject_mean_step_onset,True,footlift,footlift,left,R,young,True,replace_v3d_meta_prefilter,step_r,12.0000000000,9.0000000000
global_nonstep,S01,1.0000000000,4,S01_v1.0_T4,0,11,4.3711309433,ok,1,0.9991866636,nmf,torchnmf,cpu,float32,platform_onset,analysis_window_end,3.0000000000,12.0000000000,30,120,90,nonstep,False,True,True,subject_mean_step_onset,True,footlift,footlift,left,R,young,True,replace_v3d_meta_prefilter,step_r,12.0000000000,9.0000000000
global_nonstep,S01,1.0000000000,4,S01_v1.0_T4,0,12,4.3691997528,ok,1,0.9991866636,nmf,torchnmf,cpu,float32,platform_onset,analysis_window_end,3.0000000000,12.0000000000,30,120,90,nonstep,False,True,True,subject_mean_step_onset,True,footlift,footlift,left,R,young,True,replace_v3d_meta_prefilter,step_r,12.0000000000,9.0000000000
global_nonstep,S01,1.0000000000,4,S01_v1.0_T4,0,13,4.3672685623,ok,1,0.9991866636,nmf,torchnmf,cpu,float32,platform_onset,analysis_window_end,3.0000000000,12.0000000000,30,120,90,nonstep,False,True,True,subject_mean_step_onset,True,footlift,footlift,left,R,young,True,replace_v3d_meta_prefilter,step_r,12.0000000000,9.0000000000
global_nonstep,S01,1.0000000000,4,S01_v1.0_T4,0,14,4.3653373718,ok,1,0.9991866636,nmf,torchnmf,cpu,float32,platform_onset,analysis_window_end,3.0000000000,12.0000000000,30,120,90,nonstep,False,True,True,subject_mean_step_onset,True,footlift,footlift,left,R,young,True,replace_v3d_meta_prefilter,step_r,12.0000000000,9.0000000000
global_nonstep,S01,1.0000000000,4,S01_v1.0_T4,0,15,4.3634061813,ok,1,0.9991866636,nmf,torchnmf,cpu,float32,platform_onset,analysis_window_end,3.0000000000,12.0000000000,30,120,90,nonstep,False,True,True,subject_mean_step_onset,True,footlift,footlift,left,R,young,True,replace_v3d_meta_prefilter,step_r,12.0000000000,9.0000000000
global_nonstep,S01,1.0000000000,4,S01_v1.0_T4,0,16,4.3614749908,ok,1,0.9991866636,nmf,torchnmf,cpu,float32,platform_onset,analysis_window_end,3.0000000000,12.0000000000,30,120,90,nonstep,False,True,True,subject_mean_step_onset,True,footlift,footlift,left,R,young,True,replace_v3d_meta_prefilter,step_r,12.0000000000,9.0000000000
global_nonstep,S01,1.0000000000,4,S01_v1.0_T4,0,17,4.3595433235,ok,1,0.9991866636,nmf,torchnmf,cpu,float32,platform_onset,analysis_window_end,3.0000000000,12.0000000000,30,120,90,nonstep,False,True,True,subject_mean_step_onset,True,footlift,footlift,left,R,young,True,replace_v3d_meta_prefilter,step_r,12.0000000000,9.0000000000
global_nonstep,S01,1.0000000000,4,S01_v1.0_T4,0,18,4.3576121330,ok,1,0.9991866636,nmf,torchnmf,cpu,float32,platform_onset,analysis_window_end,3.0000000000,12.0000000000,30,120,90,nonstep,False,True,True,subject_mean_step_onset,True,footlift,footlift,left,R,young,True,replace_v3d_meta_prefilter,step_r,12.0000000000,9.0000000000
global_nonstep,S01,1.0000000000,4,S01_v1.0_T4,0,19,4.3556809425,ok,1,0.9991866636,nmf,torchnmf,cpu,float32,platform_onset,analysis_window_end,3.0000000000,12.0000000000,30,120,90,nonstep,False,True,True,subject_mean_step_onset,True,footlift,footlift,left,R,young,True,replace_v3d_meta_prefilter,step_r,12.0000000000,9.0000000000
global_nonstep,S01,1.0000000000,4,S01_v1.0_T4,0,20,4.3537497520,ok,1,0.9991866636,nmf,torchnmf,cpu,float32,platform_onset,analysis_window_end,3.0000000000,12.0000000000,30,120,90,nonstep,False,True,True,subject_mean_step_onset,True,footlift,footlift,left,R,young,True,replace_v3d_meta_prefilter,step_r,12.0000000000,9.0000000000
global_nonstep,S01,1.0000000000,4,S01_v1.0_T4,0,21,4.3518185616,ok,1,0.9991866636,nmf,torchnmf,cpu,float32,platform_onset,analysis_window_end,3.0000000000,12.0000000000,30,120,90,nonstep,False,True,True,subject_mean_step_onset,True,footlift,footlift,left,R,young,True,replace_v3d_meta_prefilter,step_r,12.0000000000,9.0000000000
global_nonstep,S01,1.0000000000,4,S01_v1.0_T4,0,22,4.3498873711,ok,1,0.9991866636,nmf,torchnmf,cpu,float32,platform_onset,analysis_window_end,3.0000000000,12.0000000000,30,120,90,nonstep,False,True,True,subject_mean_step_onset,True,footlift,footlift,left,R,young,True,replace_v3d_meta_prefilter,step_r,12.0000000000,9.0000000000
global_nonstep,S01,1.0000000000,4,S01_v1.0_T4,0,23,4.3461866379,ok,1,0.9991866636,nmf,torchnmf,cpu,float32,platform_onset,analysis_window_end,3.0000000000,12.0000000000,30,120,90,nonstep,False,True,True,subject_mean_step_onset,True,footlift,footlift,left,R,young,True,replace_v3d_meta_prefilter,step_r,12.0000000000,9.0000000000
global_nonstep,S01,1.0000000000,4,S01_v1.0_T4,0,24,4.3424859047,ok,1,0.9991866636,nmf,torchnmf,cpu,float32,platform_onset,analysis_window_end,3.0000000000,12.0000000000,30,120,90,nonstep,False,True,True,subject_mean_step_onset,True,footlift,footlift,left,R,young,True,replace_v3d_meta_prefilter,step_r,12.0000000000,9.0000000000
global_nonstep,S01,1.0000000000,4,S01_v1.0_T4,0,25,4.3387851715,ok,1,0.9991866636,nmf,torchnmf,cpu,float32,platform_onset,analysis_window_end,3.0000000000,12.0000000000,30,120,90,nonstep,False,True,True,subject_mean_step_onset,True,footlift,footlift,left,R,young,True,replace_v3d_meta_prefilter,step_r,12.0000000000,9.0000000000
global_nonstep,S01,1.0000000000,4,S01_v1.0_T4,0,26,4.3350844383,ok,1,0.9991866636,nmf,torchnmf,cpu,float32,platform_onset,analysis_window_end,3.0000000000,12.0000000000,30,120,90,nonstep,False,True,True,subject_mean_step_onset,True,footlift,footlift,left,R,young,True,replace_v3d_meta_prefilter,step_r,12.0000000000,9.0000000000
global_nonstep,S01,1.0000000000,4,S01_v1.0_T4,0,27,4.3313837051,ok,1,0.9991866636,nmf,torchnmf,cpu,float32,platform_onset,analysis_window_end,3.0000000000,12.0000000000,30,120,90,nonstep,False,True,True,subject_mean_step_onset,True,footlift,footlift,left,R,young,True,replace_v3d_meta_prefilter,step_r,12.0000000000,9.0000000000
global_nonstep,S01,1.0000000000,4,S01_v1.0_T4,0,28,4.3276834488,ok,1,0.9991866636,nmf,torchnmf,cpu,float32,platform_onset,analysis_window_end,3.0000000000,12.0000000000,30,120,90,nonstep,False,True,True,subject_mean_step_onset,True,footlift,footlift,left,R,young,True,replace_v3d_meta_prefilter,step_r,12.0000000000,9.0000000000
global_nonstep,S01,1.0000000000,4,S01_v1.0_T4,0,29,4.3239827156,ok,1,0.9991866636,nmf,torchnmf,cpu,float32,platform_onset,analysis_window_end,3.0000000000,12.0000000000,30,120,90,nonstep,False,True,True,subject_mean_step_onset,True,footlift,footlift,left,R,young,True,replace_v3d_meta_prefilter,step_r,12.0000000000,9.0000000000
global_nonstep,S01,1.0000000000,4,S01_v1.0_T4,0,30,4.3202819824,ok,1,0.9991866636,nmf,torchnmf,cpu,float32,platform_onset,analysis_window_end,3.0000000000,12.0000000000,30,120,90,nonstep,False,True,True,subject_mean_step_onset,True,footlift,footlift,left,R,young,True,replace_v3d_meta_prefilter,step_r,12.0000000000,9.0000000000
global_nonstep,S01,1.0000000000,4,S01_v1.0_T4,0,31,4.3165812492,ok,1,0.9991866636,nmf,torchnmf,cpu,float32,platform_onset,analysis_window_end,3.0000000000,12.0000000000,30,120,90,nonstep,False,True,True,subject_mean_step_onset,True,footlift,footlift,left,R,young,True,replace_v3d_meta_prefilter,step_r,12.0000000000,9.0000000000
global_nonstep,S01,1.0000000000,4,S01_v1.0_T4,0,32,4.3128805161,ok,1,0.9991866636,nmf,torchnmf,cpu,float32,platform_onset,analysis_window_end,3.0000000000,12.0000000000,30,120,90,nonstep,False,True,True,subject_mean_step_onset,True,footlift,footlift,left,R,young,True,replace_v3d_meta_prefilter,step_r,12.0000000000,9.0000000000
global_nonstep,S01,1.0000000000,4,S01_v1.0_T4,0,33,4.3091797829,ok,1,0.9991866636,nmf,torchnmf,cpu,float32,platform_onset,analysis_window_end,3.0000000000,12.0000000000,30,120,90,nonstep,False,True,True,subject_mean_step_onset,True,footlift,footlift,left,R,young,True,replace_v3d_meta_prefilter,step_r,12.0000000000,9.0000000000
global_nonstep,S01,1.0000000000,4,S01_v1.0_T4,0,34,4.3040113449,ok,1,0.9991866636,nmf,torchnmf,cpu,float32,platform_onset,analysis_window_end,3.0000000000,12.0000000000,30,120,90,nonstep,False,True,True,subject_mean_step_onset,True,footlift,footlift,left,R,young,True,replace_v3d_meta_prefilter,step_r,12.0000000000,9.0000000000
global_nonstep,S01,1.0000000000,4,S01_v1.0_T4,0,35,4.2988429070,ok,1,0.9991866636,nmf,torchnmf,cpu,float32,platform_onset,analysis_window_end,3.0000000000,12.0000000000,30,120,90,nonstep,False,True,True,subject_mean_step_onset,True,footlift,footlift,left,R,young,True,replace_v3d_meta_prefilter,step_r,12.0000000000,9.0000000000
global_nonstep,S01,1.0000000000,4,S01_v1.0_T4,0,36,4.2936744690,ok,1,0.9991866636,nmf,torchnmf,cpu,float32,platform_onset,analysis_window_end,3.0000000000,12.0000000000,30,120,90,nonstep,False,True,True,subject_mean_step_onset,True,footlift,footlift,left,R,young,True,replace_v3d_meta_prefilter,step_r,12.0000000000,9.0000000000
global_nonstep,S01,1.0000000000,4,S01_v1.0_T4,0,37,4.2885060310,ok,1,0.9991866636,nmf,torchnmf,cpu,float32,platform_onset,analysis_window_end,3.0000000000,12.0000000000,30,120,90,nonstep,False,True,True,subject_mean_step_onset,True,footlift,footlift,left,R,young,True,replace_v3d_meta_prefilter,step_r,12.0000000000,9.0000000000
global_nonstep,S01,1.0000000000,4,S01_v1.0_T4,0,38,4.2833375931,ok,1,0.9991866636,nmf,torchnmf,cpu,float32,platform_onset,analysis_window_end,3.0000000000,12.0000000000,30,120,90,nonstep,False,True,True,subject_mean_step_onset,True,footlift,footlift,left,R,young,True,replace_v3d_meta_prefilter,step_r,12.0000000000,9.0000000000
global_nonstep,S01,1.0000000000,4,S01_v1.0_T4,0,39,4.2781686783,ok,1,0.9991866636,nmf,torchnmf,cpu,float32,platform_onset,analysis_window_end,3.0000000000,12.0000000000,30,120,90,nonstep,False,True,True,subject_mean_step_onset,True,footlift,footlift,left,R,young,True,replace_v3d_meta_prefilter,step_r,12.0000000000,9.0000000000
global_nonstep,S01,1.0000000000,4,S01_v1.0_T4,0,40,4.2730002403,ok,1,0.9991866636,nmf,torchnmf,cpu,float32,platform_onset,analysis_window_end,3.0000000000,12.0000000000,30,120,90,nonstep,False,True,True,subject_mean_step_onset,True,footlift,footlift,left,R,young,True,replace_v3d_meta_prefilter,step_r,12.0000000000,9.0000000000
global_nonstep,S01,1.0000000000,4,S01_v1.0_T4,0,41,4.2678318024,ok,1,0.9991866636,nmf,torchnmf,cpu,float32,platform_onset,analysis_window_end,3.0000000000,12.0000000000,30,120,90,nonstep,False,True,True,subject_mean_step_onset,True,footlift,footlift,left,R,young,True,replace_v3d_meta_prefilter,step_r,12.0000000000,9.0000000000
global_nonstep,S01,1.0000000000,4,S01_v1.0_T4,0,42,4.2626633644,ok,1,0.9991866636,nmf,torchnmf,cpu,float32,platform_onset,analysis_window_end,3.0000000000,12.0000000000,30,120,90,nonstep,False,True,True,subject_mean_step_onset,True,footlift,footlift,left,R,young,True,replace_v3d_meta_prefilter,step_r,12.0000000000,9.0000000000
global_nonstep,S01,1.0000000000,4,S01_v1.0_T4,0,43,4.2574949265,ok,1,0.9991866636,nmf,torchnmf,cpu,float32,platform_onset,analysis_window_end,3.0000000000,12.0000000000,30,120,90,nonstep,False,True,True,subject_mean_step_onset,True,footlift,footlift,left,R,young,True,replace_v3d_meta_prefilter,step_r,12.0000000000,9.0000000000
global_nonstep,S01,1.0000000000,4,S01_v1.0_T4,0,44,4.2523264885,ok,1,0.9991866636,nmf,torchnmf,cpu,float32,platform_onset,analysis_window_end,3.0000000000,12.0000000000,30,120,90,nonstep,False,True,True,subject_mean_step_onset,True,footlift,footlift,left,R,young,True,replace_v3d_meta_prefilter,step_r,12.0000000000,9.0000000000
global_nonstep,S01,1.0000000000,4,S01_v1.0_T4,0,45,4.2461004257,ok,1,0.9991866636,nmf,torchnmf,cpu,float32,platform_onset,analysis_window_end,3.0000000000,12.0000000000,30,120,90,nonstep,False,True,True,subject_mean_step_onset,True,footlift,footlift,left,R,young,True,replace_v3d_meta_prefilter,step_r,12.0000000000,9.0000000000
global_nonstep,S01,1.0000000000,4,S01_v1.0_T4,0,46,4.2398748398,ok,1,0.9991866636,nmf,torchnmf,cpu,float32,platform_onset,analysis_window_end,3.0000000000,12.0000000000,30,120,90,nonstep,False,True,True,subject_mean_step_onset,True,footlift,footlift,left,R,young,True,replace_v3d_meta_prefilter,step_r,12.0000000000,9.0000000000
global_nonstep,S01,1.0000000000,4,S01_v1.0_T4,0,47,4.2336487770,ok,1,0.9991866636,nmf,torchnmf,cpu,float32,platform_onset,analysis_window_end,3.0000000000,12.0000000000,30,120,90,nonstep,False,True,True,subject_mean_step_onset,True,footlift,footlift,left,R,young,True,replace_v3d_meta_prefilter,step_r,12.0000000000,9.0000000000
global_nonstep,S01,1.0000000000,4,S01_v1.0_T4,0,48,4.2274231911,ok,1,0.9991866636,nmf,torchnmf,cpu,float32,platform_onset,analysis_window_end,3.0000000000,12.0000000000,30,120,90,nonstep,False,True,True,subject_mean_step_onset,True,footlift,footlift,left,R,young,True,replace_v3d_meta_prefilter,step_r,12.0000000000,9.0000000000
global_nonstep,S01,1.0000000000,4,S01_v1.0_T4,0,49,4.2211971283,ok,1,0.9991866636,nmf,torchnmf,cpu,float32,platform_onset,analysis_window_end,3.0000000000,12.0000000000,30,120,90,nonstep,False,True,True,subject_mean_step_onset,True,footlift,footlift,left,R,young,True,replace_v3d_meta_prefilter,step_r,12.0000000000,9.0000000000
global_nonstep,S01,1.0000000000,4,S01_v1.0_T4,0,50,4.2149715424,ok,1,0.9991866636,nmf,torchnmf,cpu,float32,platform_onset,analysis_window_end,3.0000000000,12.0000000000,30,120,90,nonstep,False,True,True,subject_mean_step_onset,True,footlift,footlift,left,R,young,True,replace_v3d_meta_prefilter,step_r,12.0000000000,9.0000000000
global_nonstep,S01,1.0000000000,4,S01_v1.0_T4,0,51,4.2087454796,ok,1,0.9991866636,nmf,torchnmf,cpu,float32,platform_onset,analysis_window_end,3.0000000000,12.0000000000,30,120,90,nonstep,False,True,True,subject_mean_step_onset,True,footlift,footlift,left,R,young,True,replace_v3d_meta_prefilter,step_r,12.0000000000,9.0000000000
global_nonstep,S01,1.0000000000,4,S01_v1.0_T4,0,52,4.2025198936,ok,1,0.9991866636,nmf,torchnmf,cpu,float32,platform_onset,analysis_window_end,3.0000000000,12.0000000000,30,120,90,nonstep,False,True,True,subject_mean_step_onset,True,footlift,footlift,left,R,young,True,replace_v3d_meta_prefilter,step_r,12.0000000000,9.0000000000
global_nonstep,S01,1.0000000000,4,S01_v1.0_T4,0,53,4.1962938309,ok,1,0.9991866636,nmf,torchnmf,cpu,float32,platform_onset,analysis_window_end,3.0000000000,12.0000000000,30,120,90,nonstep,False,True,True,subject_mean_step_onset,True,footlift,footlift,left,R,young,True,replace_v3d_meta_prefilter,step_r,12.0000000000,9.0000000000
global_nonstep,S01,1.0000000000,4,S01_v1.0_T4,0,54,4.1900682449,ok,1,0.9991866636,nmf,torchnmf,cpu,float32,platform_onset,analysis_window_end,3.0000000000,12.0000000000,30,120,90,nonstep,False,True,True,subject_mean_step_onset,True,footlift,footlift,left,R,young,True,replace_v3d_meta_prefilter,step_r,12.0000000000,9.0000000000
global_nonstep,S01,1.0000000000,4,S01_v1.0_T4,0,55,4.1838421822,ok,1,0.9991866636,nmf,torchnmf,cpu,float32,platform_onset,analysis_window_end,3.0000000000,12.0000000000,30,120,90,nonstep,False,True,True,subject_mean_step_onset,True,footlift,footlift,left,R,young,True,replace_v3d_meta_prefilter,step_r,12.0000000000,9.0000000000
global_nonstep,S01,1.0000000000,4,S01_v1.0_T4,0,56,4.1770477295,ok,1,0.9991866636,nmf,torchnmf,cpu,float32,platform_onset,analysis_window_end,3.0000000000,12.0000000000,30,120,90,nonstep,False,True,True,subject_mean_step_onset,True,footlift,footlift,left,R,young,True,replace_v3d_meta_prefilter,step_r,12.0000000000,9.0000000000
global_nonstep,S01,1.0000000000,4,S01_v1.0_T4,0,57,4.1702537537,ok,1,0.9991866636,nmf,torchnmf,cpu,float32,platform_onset,analysis_window_end,3.0000000000,12.0000000000,30,120,90,nonstep,False,True,True,subject_mean_step_onset,True,footlift,footlift,left,R,young,True,replace_v3d_meta_prefilter,step_r,12.0000000000,9.0000000000
global_nonstep,S01,1.0000000000,4,S01_v1.0_T4,0,58,4.1634593010,ok,1,0.9991866636,nmf,torchnmf,cpu,float32,platform_onset,analysis_window_end,3.0000000000,12.0000000000,30,120,90,nonstep,False,True,True,subject_mean_step_onset,True,footlift,footlift,left,R,young,True,replace_v3d_meta_prefilter,step_r,12.0000000000,9.0000000000
global_nonstep,S01,1.0000000000,4,S01_v1.0_T4,0,59,4.1566653252,ok,1,0.9991866636,nmf,torchnmf,cpu,float32,platform_onset,analysis_window_end,3.0000000000,12.0000000000,30,120,90,nonstep,False,True,True,subject_mean_step_onset,True,footlift,footlift,left,R,young,True,replace_v3d_meta_prefilter,step_r,12.0000000000,9.0000000000
global_nonstep,S01,1.0000000000,4,S01_v1.0_T4,0,60,4.1498708725,ok,1,0.9991866636,nmf,torchnmf,cpu,float32,platform_onset,analysis_window_end,3.0000000000,12.0000000000,30,120,90,nonstep,False,True,True,subject_mean_step_onset,True,footlift,footlift,left,R,young,True,replace_v3d_meta_prefilter,step_r,12.0000000000,9.0000000000
global_nonstep,S01,1.0000000000,4,S01_v1.0_T4,0,61,4.1430768967,ok,1,0.9991866636,nmf,torchnmf,cpu,float32,platform_onset,analysis_window_end,3.0000000000,12.0000000000,30,120,90,nonstep,False,True,True,subject_mean_step_onset,True,footlift,footlift,left,R,young,True,replace_v3d_meta_prefilter,step_r,12.0000000000,9.0000000000
global_nonstep,S01,1.0000000000,4,S01_v1.0_T4,0,62,4.1362824440,ok,1,0.9991866636,nmf,torchnmf,cpu,float32,platform_onset,analysis_window_end,3.0000000000,12.0000000000,30,120,90,nonstep,False,True,True,subject_mean_step_onset,True,footlift,footlift,left,R,young,True,replace_v3d_meta_prefilter,step_r,12.0000000000,9.0000000000
global_nonstep,S01,1.0000000000,4,S01_v1.0_T4,0,63,4.1294884682,ok,1,0.9991866636,nmf,torchnmf,cpu,float32,platform_onset,analysis_window_end,3.0000000000,12.0000000000,30,120,90,nonstep,False,True,True,subject_mean_step_onset,True,footlift,footlift,left,R,young,True,replace_v3d_meta_prefilter,step_r,12.0000000000,9.0000000000
global_nonstep,S01,1.0000000000,4,S01_v1.0_T4,0,64,4.1226940155,ok,1,0.9991866636,nmf,torchnmf,cpu,float32,platform_onset,analysis_window_end,3.0000000000,12.0000000000,30,120,90,nonstep,False,True,True,subject_mean_step_onset,True,footlift,footlift,left,R,young,True,replace_v3d_meta_prefilter,step_r,12.0000000000,9.0000000000
global_nonstep,S01,1.0000000000,4,S01_v1.0_T4,0,65,4.1159000397,ok,1,0.9991866636,nmf,torchnmf,cpu,float32,platform_onset,analysis_window_end,3.0000000000,12.0000000000,30,120,90,nonstep,False,True,True,subject_mean_step_onset,True,footlift,footlift,left,R,young,True,replace_v3d_meta_prefilter,step_r,12.0000000000,9.0000000000
global_nonstep,S01,1.0000000000,4,S01_v1.0_T4,0,66,4.1091055870,ok,1,0.9991866636,nmf,torchnmf,cpu,float32,platform_onset,analysis_window_end,3.0000000000,12.0000000000,30,120,90,nonstep,False,True,True,subject_mean_step_onset,True,footlift,footlift,left,R,young,True,replace_v3d_meta_prefilter,step_r,12.0000000000,9.0000000000
global_nonstep,S01,1.0000000000,4,S01_v1.0_T4,0,67,4.1022739410,ok,1,0.9991866636,nmf,torchnmf,cpu,float32,platform_onset,analysis_window_end,3.0000000000,12.0000000000,30,120,90,nonstep,False,True,True,subject_mean_step_onset,True,footlift,footlift,left,R,young,True,replace_v3d_meta_prefilter,step_r,12.0000000000,9.0000000000
global_nonstep,S01,1.0000000000,4,S01_v1.0_T4,0,68,4.0954427719,ok,1,0.9991866636,nmf,torchnmf,cpu,float32,platform_onset,analysis_window_end,3.0000000000,12.0000000000,30,120,90,nonstep,False,True,True,subject_mean_step_onset,True,footlift,footlift,left,R,young,True,replace_v3d_meta_prefilter,step_r,12.0000000000,9.0000000000
global_nonstep,S01,1.0000000000,4,S01_v1.0_T4,0,69,4.0886111259,ok,1,0.9991866636,nmf,torchnmf,cpu,float32,platform_onset,analysis_window_end,3.0000000000,12.0000000000,30,120,90,nonstep,False,True,True,subject_mean_step_onset,True,footlift,footlift,left,R,young,True,replace_v3d_meta_prefilter,step_r,12.0000000000,9.0000000000
global_nonstep,S01,1.0000000000,4,S01_v1.0_T4,0,70,4.0817794800,ok,1,0.9991866636,nmf,torchnmf,cpu,float32,platform_onset,analysis_window_end,3.0000000000,12.0000000000,30,120,90,nonstep,False,True,True,subject_mean_step_onset,True,footlift,footlift,left,R,young,True,replace_v3d_meta_prefilter,step_r,12.0000000000,9.0000000000
global_nonstep,S01,1.0000000000,4,S01_v1.0_T4,0,71,4.0749478340,ok,1,0.9991866636,nmf,torchnmf,cpu,float32,platform_onset,analysis_window_end,3.0000000000,12.0000000000,30,120,90,nonstep,False,True,True,subject_mean_step_onset,True,footlift,footlift,left,R,young,True,replace_v3d_meta_prefilter,step_r,12.0000000000,9.0000000000
global_nonstep,S01,1.0000000000,4,S01_v1.0_T4,0,72,4.0681166649,ok,1,0.9991866636,nmf,torchnmf,cpu,float32,platform_onset,analysis_window_end,3.0000000000,12.0000000000,30,120,90,nonstep,False,True,True,subject_mean_step_onset,True,footlift,footlift,left,R,young,True,replace_v3d_meta_prefilter,step_r,12.0000000000,9.0000000000
global_nonstep,S01,1.0000000000,4,S01_v1.0_T4,0,73,4.0612850189,ok,1,0.9991866636,nmf,torchnmf,cpu,float32,platform_onset,analysis_window_end,3.0000000000,12.0000000000,30,120,90,nonstep,False,True,True,subject_mean_step_onset,True,footlift,footlift,left,R,young,True,replace_v3d_meta_prefilter,step_r,12.0000000000,9.0000000000
global_nonstep,S01,1.0000000000,4,S01_v1.0_T4,0,74,4.0544533730,ok,1,0.9991866636,nmf,torchnmf,cpu,float32,platform_onset,analysis_window_end,3.0000000000,12.0000000000,30,120,90,nonstep,False,True,True,subject_mean_step_onset,True,footlift,footlift,left,R,young,True,replace_v3d_meta_prefilter,step_r,12.0000000000,9.0000000000
global_nonstep,S01,1.0000000000,4,S01_v1.0_T4,0,75,4.0476217270,ok,1,0.9991866636,nmf,torchnmf,cpu,float32,platform_onset,analysis_window_end,3.0000000000,12.0000000000,30,120,90,nonstep,False,True,True,subject_mean_step_onset,True,footlift,footlift,left,R,young,True,replace_v3d_meta_prefilter,step_r,12.0000000000,9.0000000000
global_nonstep,S01,1.0000000000,4,S01_v1.0_T4,0,76,4.0407905579,ok,1,0.9991866636,nmf,torchnmf,cpu,float32,platform_onset,analysis_window_end,3.0000000000,12.0000000000,30,120,90,nonstep,False,True,True,subject_mean_step_onset,True,footlift,footlift,left,R,young,True,replace_v3d_meta_prefilter,step_r,12.0000000000,9.0000000000
global_nonstep,S01,1.0000000000,4,S01_v1.0_T4,0,77,4.0339589119,ok,1,0.9991866636,nmf,torchnmf,cpu,float32,platform_onset,analysis_window_end,3.0000000000,12.0000000000,30,120,90,nonstep,False,True,True,subject_mean_step_onset,True,footlift,footlift,left,R,young,True,replace_v3d_meta_prefilter,step_r,12.0000000000,9.0000000000
global_nonstep,S01,1.0000000000,4,S01_v1.0_T4,0,78,4.0276236534,ok,1,0.9991866636,nmf,torchnmf,cpu,float32,platform_onset,analysis_window_end,3.0000000000,12.0000000000,30,120,90,nonstep,False,True,True,subject_mean_step_onset,True,footlift,footlift,left,R,young,True,replace_v3d_meta_prefilter,step_r,12.0000000000,9.0000000000
global_nonstep,S01,1.0000000000,4,S01_v1.0_T4,0,79,4.0212888718,ok,1,0.9991866636,nmf,torchnmf,cpu,float32,platform_onset,analysis_window_end,3.0000000000,12.0000000000,30,120,90,nonstep,False,True,True,subject_mean_step_onset,True,footlift,footlift,left,R,young,True,replace_v3d_meta_prefilter,step_r,12.0000000000,9.0000000000
global_nonstep,S01,1.0000000000,4,S01_v1.0_T4,0,80,4.0149536133,ok,1,0.9991866636,nmf,torchnmf,cpu,float32,platform_onset,analysis_window_end,3.0000000000,12.0000000000,30,120,90,nonstep,False,True,True,subject_mean_step_onset,True,footlift,footlift,left,R,young,True,replace_v3d_meta_prefilter,step_r,12.0000000000,9.0000000000
global_nonstep,S01,1.0000000000,4,S01_v1.0_T4,0,81,4.0086183548,ok,1,0.9991866636,nmf,torchnmf,cpu,float32,platform_onset,analysis_window_end,3.0000000000,12.0000000000,30,120,90,nonstep,False,True,True,subject_mean_step_onset,True,footlift,footlift,left,R,young,True,replace_v3d_meta_prefilter,step_r,12.0000000000,9.0000000000
global_nonstep,S01,1.0000000000,4,S01_v1.0_T4,0,82,4.0022835732,ok,1,0.9991866636,nmf,torchnmf,cpu,float32,platform_onset,analysis_window_end,3.0000000000,12.0000000000,30,120,90,nonstep,False,True,True,subject_mean_step_onset,True,footlift,footlift,left,R,young,True,replace_v3d_meta_prefilter,step_r,12.0000000000,9.0000000000
global_nonstep,S01,1.0000000000,4,S01_v1.0_T4,0,83,3.9959483147,ok,1,0.9991866636,nmf,torchnmf,cpu,float32,platform_onset,analysis_window_end,3.0000000000,12.0000000000,30,120,90,nonstep,False,True,True,subject_mean_step_onset,True,footlift,footlift,left,R,young,True,replace_v3d_meta_prefilter,step_r,12.0000000000,9.0000000000
global_nonstep,S01,1.0000000000,4,S01_v1.0_T4,0,84,3.9896132946,ok,1,0.9991866636,nmf,torchnmf,cpu,float32,platform_onset,analysis_window_end,3.0000000000,12.0000000000,30,120,90,nonstep,False,True,True,subject_mean_step_onset,True,footlift,footlift,left,R,young,True,replace_v3d_meta_prefilter,step_r,12.0000000000,9.0000000000
global_nonstep,S01,1.0000000000,4,S01_v1.0_T4,0,85,3.9832782745,ok,1,0.9991866636,nmf,torchnmf,cpu,float32,platform_onset,analysis_window_end,3.0000000000,12.0000000000,30,120,90,nonstep,False,True,True,subject_mean_step_onset,True,footlift,footlift,left,R,young,True,replace_v3d_meta_prefilter,step_r,12.0000000000,9.0000000000
global_nonstep,S01,1.0000000000,4,S01_v1.0_T4,0,86,3.9769432545,ok,1,0.9991866636,nmf,torchnmf,cpu,float32,platform_onset,analysis_window_end,3.0000000000,12.0000000000,30,120,90,nonstep,False,True,True,subject_mean_step_onset,True,footlift,footlift,left,R,young,True,replace_v3d_meta_prefilter,step_r,12.0000000000,9.0000000000
global_nonstep,S01,1.0000000000,4,S01_v1.0_T4,0,87,3.9706079960,ok,1,0.9991866636,nmf,torchnmf,cpu,float32,platform_onset,analysis_window_end,3.0000000000,12.0000000000,30,120,90,nonstep,False,True,True,subject_mean_step_onset,True,footlift,footlift,left,R,young,True,replace_v3d_meta_prefilter,step_r,12.0000000000,9.0000000000
global_nonstep,S01,1.0000000000,4,S01_v1.0_T4,0,88,3.9642729759,ok,1,0.9991866636,nmf,torchnmf,cpu,float32,platform_onset,analysis_window_end,3.0000000000,12.0000000000,30,120,90,nonstep,False,True,True,subject_mean_step_onset,True,footlift,footlift,left,R,young,True,replace_v3d_meta_prefilter,step_r,12.0000000000,9.0000000000
global_nonstep,S01,1.0000000000,4,S01_v1.0_T4,0,89,3.9589314461,ok,1,0.9991866636,nmf,torchnmf,cpu,float32,platform_onset,analysis_window_end,3.0000000000,12.0000000000,30,120,90,nonstep,False,True,True,subject_mean_step_onset,True,footlift,footlift,left,R,young,True,replace_v3d_meta_prefilter,step_r,12.0000000000,9.0000000000
global_nonstep,S01,1.0000000000,4,S01_v1.0_T4,0,90,3.9535901546,ok,1,0.9991866636,nmf,torchnmf,cpu,float32,platform_onset,analysis_window_end,3.0000000000,12.0000000000,30,120,90,nonstep,False,True,True,subject_mean_step_onset,True,footlift,footlift,left,R,young,True,replace_v3d_meta_prefilter,step_r,12.0000000000,9.0000000000
global_nonstep,S01,1.0000000000,4,S01_v1.0_T4,0,91,3.9482486248,ok,1,0.9991866636,nmf,torchnmf,cpu,float32,platform_onset,analysis_window_end,3.0000000000,12.0000000000,30,120,90,nonstep,False,True,True,subject_mean_step_onset,True,footlift,footlift,left,R,young,True,replace_v3d_meta_prefilter,step_r,12.0000000000,9.0000000000
global_nonstep,S01,1.0000000000,4,S01_v1.0_T4,0,92,3.9429070950,ok,1,0.9991866636,nmf,torchnmf,cpu,float32,platform_onset,analysis_window_end,3.0000000000,12.0000000000,30,120,90,nonstep,False,True,True,subject_mean_step_onset,True,footlift,footlift,left,R,young,True,replace_v3d_meta_prefilter,step_r,12.0000000000,9.0000000000
global_nonstep,S01,1.0000000000,4,S01_v1.0_T4,0,93,3.9375655651,ok,1,0.9991866636,nmf,torchnmf,cpu,float32,platform_onset,analysis_window_end,3.0000000000,12.0000000000,30,120,90,nonstep,False,True,True,subject_mean_step_onset,True,footlift,footlift,left,R,young,True,replace_v3d_meta_prefilter,step_r,12.0000000000,9.0000000000
global_nonstep,S01,1.0000000000,4,S01_v1.0_T4,0,94,3.9322242737,ok,1,0.9991866636,nmf,torchnmf,cpu,float32,platform_onset,analysis_window_end,3.0000000000,12.0000000000,30,120,90,nonstep,False,True,True,subject_mean_step_onset,True,footlift,footlift,left,R,young,True,replace_v3d_meta_prefilter,step_r,12.0000000000,9.0000000000
global_nonstep,S01,1.0000000000,4,S01_v1.0_T4,0,95,3.9268827438,ok,1,0.9991866636,nmf,torchnmf,cpu,float32,platform_onset,analysis_window_end,3.0000000000,12.0000000000,30,120,90,nonstep,False,True,True,subject_mean_step_onset,True,footlift,footlift,left,R,young,True,replace_v3d_meta_prefilter,step_r,12.0000000000,9.0000000000
global_nonstep,S01,1.0000000000,4,S01_v1.0_T4,0,96,3.9215412140,ok,1,0.9991866636,nmf,torchnmf,cpu,float32,platform_onset,analysis_window_end,3.0000000000,12.0000000000,30,120,90,nonstep,False,True,True,subject_mean_step_onset,True,footlift,footlift,left,R,young,True,replace_v3d_meta_prefilter,step_r,12.0000000000,9.0000000000
global_nonstep,S01,1.0000000000,4,S01_v1.0_T4,0,97,3.9161996841,ok,1,0.9991866636,nmf,torchnmf,cpu,float32,platform_onset,analysis_window_end,3.0000000000,12.0000000000,30,120,90,nonstep,False,True,True,subject_mean_step_onset,True,footlift,footlift,left,R,young,True,replace_v3d_meta_prefilter,step_r,12.0000000000,9.0000000000
global_nonstep,S01,1.0000000000,4,S01_v1.0_T4,0,98,3.9108583927,ok,1,0.9991866636,nmf,torchnmf,cpu,float32,platform_onset,analysis_window_end,3.0000000000,12.0000000000,30,120,90,nonstep,False,True,True,subject_mean_step_onset,True,footlift,footlift,left,R,young,True,replace_v3d_meta_prefilter,step_r,12.0000000000,9.0000000000
global_nonstep,S01,1.0000000000,4,S01_v1.0_T4,0,99,3.9055168629,ok,1,0.9991866636,nmf,torchnmf,cpu,float32,platform_onset,analysis_window_end,3.0000000000,12.0000000000,30,120,90,nonstep,False,True,True,subject_mean_step_onset,True,footlift,footlift,left,R,young,True,replace_v3d_meta_prefilter,step_r,12.0000000000,9.0000000000
global_nonstep,S02,1.0000000000,3,S02_v1.0_T3,0,0,7.1267461777,ok,1,0.9996933863,nmf,torchnmf,cpu,float32,platform_onset,analysis_window_end,3.0000000000,12.0000000000,30,120,90,nonstep,False,True,True,subject_mean_step_onset,True,nonstep,nonstep,right,L,young,True,replace_v3d_meta_prefilter,step_l,12.0000000000,9.0000000000
global_nonstep,S02,1.0000000000,3,S02_v1.0_T3,0,1,7.1267547607,ok,1,0.9996933863,nmf,torchnmf,cpu,float32,platform_onset,analysis_window_end,3.0000000000,12.0000000000,30,120,90,nonstep,False,True,True,subject_mean_step_onset,True,nonstep,nonstep,right,L,young,True,replace_v3d_meta_prefilter,step_l,12.0000000000,9.0000000000
global_nonstep,S02,1.0000000000,3,S02_v1.0_T3,0,2,7.1267633438,ok,1,0.9996933863,nmf,torchnmf,cpu,float32,platform_onset,analysis_window_end,3.0000000000,12.0000000000,30,120,90,nonstep,False,True,True,subject_mean_step_onset,True,nonstep,nonstep,right,L,young,True,replace_v3d_meta_prefilter,step_l,12.0000000000,9.0000000000
global_nonstep,S02,1.0000000000,3,S02_v1.0_T3,0,3,7.1267724037,ok,1,0.9996933863,nmf,torchnmf,cpu,float32,platform_onset,analysis_window_end,3.0000000000,12.0000000000,30,120,90,nonstep,False,True,True,subject_mean_step_onset,True,nonstep,nonstep,right,L,young,True,replace_v3d_meta_prefilter,step_l,12.0000000000,9.0000000000
global_nonstep,S02,1.0000000000,3,S02_v1.0_T3,0,4,7.1267809868,ok,1,0.9996933863,nmf,torchnmf,cpu,float32,platform_onset,analysis_window_end,3.0000000000,12.0000000000,30,120,90,nonstep,False,True,True,subject_mean_step_onset,True,nonstep,nonstep,right,L,young,True,replace_v3d_meta_prefilter,step_l,12.0000000000,9.0000000000
global_nonstep,S02,1.0000000000,3,S02_v1.0_T3,0,5,7.1267895699,ok,1,0.9996933863,nmf,torchnmf,cpu,float32,platform_onset,analysis_window_end,3.0000000000,12.0000000000,30,120,90,nonstep,False,True,True,subject_mean_step_onset,True,nonstep,nonstep,right,L,young,True,replace_v3d_meta_prefilter,step_l,12.0000000000,9.0000000000
global_nonstep,S02,1.0000000000,3,S02_v1.0_T3,0,6,7.1267981529,ok,1,0.9996933863,nmf,torchnmf,cpu,float32,platform_onset,analysis_window_end,3.0000000000,12.0000000000,30,120,90,nonstep,False,True,True,subject_mean_step_onset,True,nonstep,nonstep,right,L,young,True,replace_v3d_meta_prefilter,step_l,12.0000000000,9.0000000000
global_nonstep,S02,1.0000000000,3,S02_v1.0_T3,0,7,7.1268067360,ok,1,0.9996933863,nmf,torchnmf,cpu,float32,platform_onset,analysis_window_end,3.0000000000,12.0000000000,30,120,90,nonstep,False,True,True,subject_mean_step_onset,True,nonstep,nonstep,right,L,young,True,replace_v3d_meta_prefilter,step_l,12.0000000000,9.0000000000
global_nonstep,S02,1.0000000000,3,S02_v1.0_T3,0,8,7.1268153191,ok,1,0.9996933863,nmf,torchnmf,cpu,float32,platform_onset,analysis_window_end,3.0000000000,12.0000000000,30,120,90,nonstep,False,True,True,subject_mean_step_onset,True,nonstep,nonstep,right,L,young,True,replace_v3d_meta_prefilter,step_l,12.0000000000,9.0000000000
global_nonstep,S02,1.0000000000,3,S02_v1.0_T3,0,9,7.1268243790,ok,1,0.9996933863,nmf,torchnmf,cpu,float32,platform_onset,analysis_window_end,3.0000000000,12.0000000000,30,120,90,nonstep,False,True,True,subject_mean_step_onset,True,nonstep,nonstep,right,L,young,True,replace_v3d_meta_prefilter,step_l,12.0000000000,9.0000000000
global_nonstep,S02,1.0000000000,3,S02_v1.0_T3,0,10,7.1268329620,ok,1,0.9996933863,nmf,torchnmf,cpu,float32,platform_onset,analysis_window_end,3.0000000000,12.0000000000,30,120,90,nonstep,False,True,True,subject_mean_step_onset,True,nonstep,nonstep,right,L,young,True,replace_v3d_meta_prefilter,step_l,12.0000000000,9.0000000000
global_nonstep,S02,1.0000000000,3,S02_v1.0_T3,0,11,7.1268415451,ok,1,0.9996933863,nmf,torchnmf,cpu,float32,platform_onset,analysis_window_end,3.0000000000,12.0000000000,30,120,90,nonstep,False,True,True,subject_mean_step_onset,True,nonstep,nonstep,right,L,young,True,replace_v3d_meta_prefilter,step_l,12.0000000000,9.0000000000
global_nonstep,S02,1.0000000000,3,S02_v1.0_T3,0,12,7.1249132156,ok,1,0.9996933863,nmf,torchnmf,cpu,float32,platform_onset,analysis_window_end,3.0000000000,12.0000000000,30,120,90,nonstep,False,True,True,subject_mean_step_onset,True,nonstep,nonstep,right,L,young,True,replace_v3d_meta_prefilter,step_l,12.0000000000,9.0000000000
global_nonstep,S02,1.0000000000,3,S02_v1.0_T3,0,13,7.1229853630,ok,1,0.9996933863,nmf,torchnmf,cpu,float32,platform_onset,analysis_window_end,3.0000000000,12.0000000000,30,120,90,nonstep,False,True,True,subject_mean_step_onset,True,nonstep,nonstep,right,L,young,True,replace_v3d_meta_prefilter,step_l,12.0000000000,9.0000000000
global_nonstep,S02,1.0000000000,3,S02_v1.0_T3,0,14,7.1210570335,ok,1,0.9996933863,nmf,torchnmf,cpu,float32,platform_onset,analysis_window_end,3.0000000000,12.0000000000,30,120,90,nonstep,False,True,True,subject_mean_step_onset,True,nonstep,nonstep,right,L,young,True,replace_v3d_meta_prefilter,step_l,12.0000000000,9.0000000000
global_nonstep,S02,1.0000000000,3,S02_v1.0_T3,0,15,7.1191287041,ok,1,0.9996933863,nmf,torchnmf,cpu,float32,platform_onset,analysis_window_end,3.0000000000,12.0000000000,30,120,90,nonstep,False,True,True,subject_mean_step_onset,True,nonstep,nonstep,right,L,young,True,replace_v3d_meta_prefilter,step_l,12.0000000000,9.0000000000
global_nonstep,S02,1.0000000000,3,S02_v1.0_T3,0,16,7.1172003746,ok,1,0.9996933863,nmf,torchnmf,cpu,float32,platform_onset,analysis_window_end,3.0000000000,12.0000000000,30,120,90,nonstep,False,True,True,subject_mean_step_onset,True,nonstep,nonstep,right,L,young,True,replace_v3d_meta_prefilter,step_l,12.0000000000,9.0000000000
global_nonstep,S02,1.0000000000,3,S02_v1.0_T3,0,17,7.1152725220,ok,1,0.9996933863,nmf,torchnmf,cpu,float32,platform_onset,analysis_window_end,3.0000000000,12.0000000000,30,120,90,nonstep,False,True,True,subject_mean_step_onset,True,nonstep,nonstep,right,L,young,True,replace_v3d_meta_prefilter,step_l,12.0000000000,9.0000000000
global_nonstep,S02,1.0000000000,3,S02_v1.0_T3,0,18,7.1133441925,ok,1,0.9996933863,nmf,torchnmf,cpu,float32,platform_onset,analysis_window_end,3.0000000000,12.0000000000,30,120,90,nonstep,False,True,True,subject_mean_step_onset,True,nonstep,nonstep,right,L,young,True,replace_v3d_meta_prefilter,step_l,12.0000000000,9.0000000000
global_nonstep,S02,1.0000000000,3,S02_v1.0_T3,0,19,7.1114158630,ok,1,0.9996933863,nmf,torchnmf,cpu,float32,platform_onset,analysis_window_end,3.0000000000,12.0000000000,30,120,90,nonstep,False,True,True,subject_mean_step_onset,True,nonstep,nonstep,right,L,young,True,replace_v3d_meta_prefilter,step_l,12.0000000000,9.0000000000
global_nonstep,S02,1.0000000000,3,S02_v1.0_T3,0,20,7.1094875336,ok,1,0.9996933863,nmf,torchnmf,cpu,float32,platform_onset,analysis_window_end,3.0000000000,12.0000000000,30,120,90,nonstep,False,True,True,subject_mean_step_onset,True,nonstep,nonstep,right,L,young,True,replace_v3d_meta_prefilter,step_l,12.0000000000,9.0000000000
global_nonstep,S02,1.0000000000,3,S02_v1.0_T3,0,21,7.1075596809,ok,1,0.9996933863,nmf,torchnmf,cpu,float32,platform_onset,analysis_window_end,3.0000000000,12.0000000000,30,120,90,nonstep,False,True,True,subject_mean_step_onset,True,nonstep,nonstep,right,L,young,True,replace_v3d_meta_prefilter,step_l,12.0000000000,9.0000000000
global_nonstep,S02,1.0000000000,3,S02_v1.0_T3,0,22,7.1056313515,ok,1,0.9996933863,nmf,torchnmf,cpu,float32,platform_onset,analysis_window_end,3.0000000000,12.0000000000,30,120,90,nonstep,False,True,True,subject_mean_step_onset,True,nonstep,nonstep,right,L,young,True,replace_v3d_meta_prefilter,step_l,12.0000000000,9.0000000000
global_nonstep,S02,1.0000000000,3,S02_v1.0_T3,0,23,7.1019363403,ok,1,0.9996933863,nmf,torchnmf,cpu,float32,platform_onset,analysis_window_end,3.0000000000,12.0000000000,30,120,90,nonstep,False,True,True,subject_mean_step_onset,True,nonstep,nonstep,right,L,young,True,replace_v3d_meta_prefilter,step_l,12.0000000000,9.0000000000
global_nonstep,S02,1.0000000000,3,S02_v1.0_T3,0,24,7.0982413292,ok,1,0.9996933863,nmf,torchnmf,cpu,float32,platform_onset,analysis_window_end,3.0000000000,12.0000000000,30,120,90,nonstep,False,True,True,subject_mean_step_onset,True,nonstep,nonstep,right,L,young,True,replace_v3d_meta_prefilter,step_l,12.0000000000,9.0000000000
global_nonstep,S02,1.0000000000,3,S02_v1.0_T3,0,25,7.0945463181,ok,1,0.9996933863,nmf,torchnmf,cpu,float32,platform_onset,analysis_window_end,3.0000000000,12.0000000000,30,120,90,nonstep,False,True,True,subject_mean_step_onset,True,nonstep,nonstep,right,L,young,True,replace_v3d_meta_prefilter,step_l,12.0000000000,9.0000000000
global_nonstep,S02,1.0000000000,3,S02_v1.0_T3,0,26,7.0908513069,ok,1,0.9996933863,nmf,torchnmf,cpu,float32,platform_onset,analysis_window_end,3.0000000000,12.0000000000,30,120,90,nonstep,False,True,True,subject_mean_step_onset,True,nonstep,nonstep,right,L,young,True,replace_v3d_meta_prefilter,step_l,12.0000000000,9.0000000000
global_nonstep,S02,1.0000000000,3,S02_v1.0_T3,0,27,7.0871562958,ok,1,0.9996933863,nmf,torchnmf,cpu,float32,platform_onset,analysis_window_end,3.0000000000,12.0000000000,30,120,90,nonstep,False,True,True,subject_mean_step_onset,True,nonstep,nonstep,right,L,young,True,replace_v3d_meta_prefilter,step_l,12.0000000000,9.0000000000
global_nonstep,S02,1.0000000000,3,S02_v1.0_T3,0,28,7.0834612846,ok,1,0.9996933863,nmf,torchnmf,cpu,float32,platform_onset,analysis_window_end,3.0000000000,12.0000000000,30,120,90,nonstep,False,True,True,subject_mean_step_onset,True,nonstep,nonstep,right,L,young,True,replace_v3d_meta_prefilter,step_l,12.0000000000,9.0000000000
global_nonstep,S02,1.0000000000,3,S02_v1.0_T3,0,29,7.0797662735,ok,1,0.9996933863,nmf,torchnmf,cpu,float32,platform_onset,analysis_window_end,3.0000000000,12.0000000000,30,120,90,nonstep,False,True,True,subject_mean_step_onset,True,nonstep,nonstep,right,L,young,True,replace_v3d_meta_prefilter,step_l,12.0000000000,9.0000000000
global_nonstep,S02,1.0000000000,3,S02_v1.0_T3,0,30,7.0760712624,ok,1,0.9996933863,nmf,torchnmf,cpu,float32,platform_onset,analysis_window_end,3.0000000000,12.0000000000,30,120,90,nonstep,False,True,True,subject_mean_step_onset,True,nonstep,nonstep,right,L,young,True,replace_v3d_meta_prefilter,step_l,12.0000000000,9.0000000000
global_nonstep,S02,1.0000000000,3,S02_v1.0_T3,0,31,7.0723762512,ok,1,0.9996933863,nmf,torchnmf,cpu,float32,platform_onset,analysis_window_end,3.0000000000,12.0000000000,30,120,90,nonstep,False,True,True,subject_mean_step_onset,True,nonstep,nonstep,right,L,young,True,replace_v3d_meta_prefilter,step_l,12.0000000000,9.0000000000
global_nonstep,S02,1.0000000000,3,S02_v1.0_T3,0,32,7.0686812401,ok,1,0.9996933863,nmf,torchnmf,cpu,float32,platform_onset,analysis_window_end,3.0000000000,12.0000000000,30,120,90,nonstep,False,True,True,subject_mean_step_onset,True,nonstep,nonstep,right,L,young,True,replace_v3d_meta_prefilter,step_l,12.0000000000,9.0000000000
global_nonstep,S02,1.0000000000,3,S02_v1.0_T3,0,33,7.0649862289,ok,1,0.9996933863,nmf,torchnmf,cpu,float32,platform_onset,analysis_window_end,3.0000000000,12.0000000000,30,120,90,nonstep,False,True,True,subject_mean_step_onset,True,nonstep,nonstep,right,L,young,True,replace_v3d_meta_prefilter,step_l,12.0000000000,9.0000000000
global_nonstep,S02,1.0000000000,3,S02_v1.0_T3,0,34,7.0598254204,ok,1,0.9996933863,nmf,torchnmf,cpu,float32,platform_onset,analysis_window_end,3.0000000000,12.0000000000,30,120,90,nonstep,False,True,True,subject_mean_step_onset,True,nonstep,nonstep,right,L,young,True,replace_v3d_meta_prefilter,step_l,12.0000000000,9.0000000000
global_nonstep,S02,1.0000000000,3,S02_v1.0_T3,0,35,7.0546650887,ok,1,0.9996933863,nmf,torchnmf,cpu,float32,platform_onset,analysis_window_end,3.0000000000,12.0000000000,30,120,90,nonstep,False,True,True,subject_mean_step_onset,True,nonstep,nonstep,right,L,young,True,replace_v3d_meta_prefilter,step_l,12.0000000000,9.0000000000
global_nonstep,S02,1.0000000000,3,S02_v1.0_T3,0,36,7.0495042801,ok,1,0.9996933863,nmf,torchnmf,cpu,float32,platform_onset,analysis_window_end,3.0000000000,12.0000000000,30,120,90,nonstep,False,True,True,subject_mean_step_onset,True,nonstep,nonstep,right,L,young,True,replace_v3d_meta_prefilter,step_l,12.0000000000,9.0000000000
global_nonstep,S02,1.0000000000,3,S02_v1.0_T3,0,37,7.0443439484,ok,1,0.9996933863,nmf,torchnmf,cpu,float32,platform_onset,analysis_window_end,3.0000000000,12.0000000000,30,120,90,nonstep,False,True,True,subject_mean_step_onset,True,nonstep,nonstep,right,L,young,True,replace_v3d_meta_prefilter,step_l,12.0000000000,9.0000000000
global_nonstep,S02,1.0000000000,3,S02_v1.0_T3,0,38,7.0391831398,ok,1,0.9996933863,nmf,torchnmf,cpu,float32,platform_onset,analysis_window_end,3.0000000000,12.0000000000,30,120,90,nonstep,False,True,True,subject_mean_step_onset,True,nonstep,nonstep,right,L,young,True,replace_v3d_meta_prefilter,step_l,12.0000000000,9.0000000000
global_nonstep,S02,1.0000000000,3,S02_v1.0_T3,0,39,7.0340228081,ok,1,0.9996933863,nmf,torchnmf,cpu,float32,platform_onset,analysis_window_end,3.0000000000,12.0000000000,30,120,90,nonstep,False,True,True,subject_mean_step_onset,True,nonstep,nonstep,right,L,young,True,replace_v3d_meta_prefilter,step_l,12.0000000000,9.0000000000
global_nonstep,S02,1.0000000000,3,S02_v1.0_T3,0,40,7.0288619995,ok,1,0.9996933863,nmf,torchnmf,cpu,float32,platform_onset,analysis_window_end,3.0000000000,12.0000000000,30,120,90,nonstep,False,True,True,subject_mean_step_onset,True,nonstep,nonstep,right,L,young,True,replace_v3d_meta_prefilter,step_l,12.0000000000,9.0000000000
global_nonstep,S02,1.0000000000,3,S02_v1.0_T3,0,41,7.0237016678,ok,1,0.9996933863,nmf,torchnmf,cpu,float32,platform_onset,analysis_window_end,3.0000000000,12.0000000000,30,120,90,nonstep,False,True,True,subject_mean_step_onset,True,nonstep,nonstep,right,L,young,True,replace_v3d_meta_prefilter,step_l,12.0000000000,9.0000000000
global_nonstep,S02,1.0000000000,3,S02_v1.0_T3,0,42,7.0185408592,ok,1,0.9996933863,nmf,torchnmf,cpu,float32,platform_onset,analysis_window_end,3.0000000000,12.0000000000,30,120,90,nonstep,False,True,True,subject_mean_step_onset,True,nonstep,nonstep,right,L,young,True,replace_v3d_meta_prefilter,step_l,12.0000000000,9.0000000000
global_nonstep,S02,1.0000000000,3,S02_v1.0_T3,0,43,7.0133805275,ok,1,0.9996933863,nmf,torchnmf,cpu,float32,platform_onset,analysis_window_end,3.0000000000,12.0000000000,30,120,90,nonstep,False,True,True,subject_mean_step_onset,True,nonstep,nonstep,right,L,young,True,replace_v3d_meta_prefilter,step_l,12.0000000000,9.0000000000
global_nonstep,S02,1.0000000000,3,S02_v1.0_T3,0,44,7.0082197189,ok,1,0.9996933863,nmf,torchnmf,cpu,float32,platform_onset,analysis_window_end,3.0000000000,12.0000000000,30,120,90,nonstep,False,True,True,subject_mean_step_onset,True,nonstep,nonstep,right,L,young,True,replace_v3d_meta_prefilter,step_l,12.0000000000,9.0000000000
global_nonstep,S02,1.0000000000,3,S02_v1.0_T3,0,45,7.0020036697,ok,1,0.9996933863,nmf,torchnmf,cpu,float32,platform_onset,analysis_window_end,3.0000000000,12.0000000000,30,120,90,nonstep,False,True,True,subject_mean_step_onset,True,nonstep,nonstep,right,L,young,True,replace_v3d_meta_prefilter,step_l,12.0000000000,9.0000000000
global_nonstep,S02,1.0000000000,3,S02_v1.0_T3,0,46,6.9957871437,ok,1,0.9996933863,nmf,torchnmf,cpu,float32,platform_onset,analysis_window_end,3.0000000000,12.0000000000,30,120,90,nonstep,False,True,True,subject_mean_step_onset,True,nonstep,nonstep,right,L,young,True,replace_v3d_meta_prefilter,step_l,12.0000000000,9.0000000000
global_nonstep,S02,1.0000000000,3,S02_v1.0_T3,0,47,6.9895710945,ok,1,0.9996933863,nmf,torchnmf,cpu,float32,platform_onset,analysis_window_end,3.0000000000,12.0000000000,30,120,90,nonstep,False,True,True,subject_mean_step_onset,True,nonstep,nonstep,right,L,young,True,replace_v3d_meta_prefilter,step_l,12.0000000000,9.0000000000
global_nonstep,S02,1.0000000000,3,S02_v1.0_T3,0,48,6.9833545685,ok,1,0.9996933863,nmf,torchnmf,cpu,float32,platform_onset,analysis_window_end,3.0000000000,12.0000000000,30,120,90,nonstep,False,True,True,subject_mean_step_onset,True,nonstep,nonstep,right,L,young,True,replace_v3d_meta_prefilter,step_l,12.0000000000,9.0000000000
global_nonstep,S02,1.0000000000,3,S02_v1.0_T3,0,49,6.9771385193,ok,1,0.9996933863,nmf,torchnmf,cpu,float32,platform_onset,analysis_window_end,3.0000000000,12.0000000000,30,120,90,nonstep,False,True,True,subject_mean_step_onset,True,nonstep,nonstep,right,L,young,True,replace_v3d_meta_prefilter,step_l,12.0000000000,9.0000000000
global_nonstep,S02,1.0000000000,3,S02_v1.0_T3,0,50,6.9709219933,ok,1,0.9996933863,nmf,torchnmf,cpu,float32,platform_onset,analysis_window_end,3.0000000000,12.0000000000,30,120,90,nonstep,False,True,True,subject_mean_step_onset,True,nonstep,nonstep,right,L,young,True,replace_v3d_meta_prefilter,step_l,12.0000000000,9.0000000000
global_nonstep,S02,1.0000000000,3,S02_v1.0_T3,0,51,6.9647059441,ok,1,0.9996933863,nmf,torchnmf,cpu,float32,platform_onset,analysis_window_end,3.0000000000,12.0000000000,30,120,90,nonstep,False,True,True,subject_mean_step_onset,True,nonstep,nonstep,right,L,young,True,replace_v3d_meta_prefilter,step_l,12.0000000000,9.0000000000
global_nonstep,S02,1.0000000000,3,S02_v1.0_T3,0,52,6.9584894180,ok,1,0.9996933863,nmf,torchnmf,cpu,float32,platform_onset,analysis_window_end,3.0000000000,12.0000000000,30,120,90,nonstep,False,True,True,subject_mean_step_onset,True,nonstep,nonstep,right,L,young,True,replace_v3d_meta_prefilter,step_l,12.0000000000,9.0000000000
global_nonstep,S02,1.0000000000,3,S02_v1.0_T3,0,53,6.9522733688,ok,1,0.9996933863,nmf,torchnmf,cpu,float32,platform_onset,analysis_window_end,3.0000000000,12.0000000000,30,120,90,nonstep,False,True,True,subject_mean_step_onset,True,nonstep,nonstep,right,L,young,True,replace_v3d_meta_prefilter,step_l,12.0000000000,9.0000000000
global_nonstep,S02,1.0000000000,3,S02_v1.0_T3,0,54,6.9460568428,ok,1,0.9996933863,nmf,torchnmf,cpu,float32,platform_onset,analysis_window_end,3.0000000000,12.0000000000,30,120,90,nonstep,False,True,True,subject_mean_step_onset,True,nonstep,nonstep,right,L,young,True,replace_v3d_meta_prefilter,step_l,12.0000000000,9.0000000000
global_nonstep,S02,1.0000000000,3,S02_v1.0_T3,0,55,6.9398407936,ok,1,0.9996933863,nmf,torchnmf,cpu,float32,platform_onset,analysis_window_end,3.0000000000,12.0000000000,30,120,90,nonstep,False,True,True,subject_mean_step_onset,True,nonstep,nonstep,right,L,young,True,replace_v3d_meta_prefilter,step_l,12.0000000000,9.0000000000
global_nonstep,S02,1.0000000000,3,S02_v1.0_T3,0,56,6.9330568314,ok,1,0.9996933863,nmf,torchnmf,cpu,float32,platform_onset,analysis_window_end,3.0000000000,12.0000000000,30,120,90,nonstep,False,True,True,subject_mean_step_onset,True,nonstep,nonstep,right,L,young,True,replace_v3d_meta_prefilter,step_l,12.0000000000,9.0000000000
global_nonstep,S02,1.0000000000,3,S02_v1.0_T3,0,57,6.9262733459,ok,1,0.9996933863,nmf,torchnmf,cpu,float32,platform_onset,analysis_window_end,3.0000000000,12.0000000000,30,120,90,nonstep,False,True,True,subject_mean_step_onset,True,nonstep,nonstep,right,L,young,True,replace_v3d_meta_prefilter,step_l,12.0000000000,9.0000000000
global_nonstep,S02,1.0000000000,3,S02_v1.0_T3,0,58,6.9194893837,ok,1,0.9996933863,nmf,torchnmf,cpu,float32,platform_onset,analysis_window_end,3.0000000000,12.0000000000,30,120,90,nonstep,False,True,True,subject_mean_step_onset,True,nonstep,nonstep,right,L,young,True,replace_v3d_meta_prefilter,step_l,12.0000000000,9.0000000000
global_nonstep,S02,1.0000000000,3,S02_v1.0_T3,0,59,6.9127054214,ok,1,0.9996933863,nmf,torchnmf,cpu,float32,platform_onset,analysis_window_end,3.0000000000,12.0000000000,30,120,90,nonstep,False,True,True,subject_mean_step_onset,True,nonstep,nonstep,right,L,young,True,replace_v3d_meta_prefilter,step_l,12.0000000000,9.0000000000
global_nonstep,S02,1.0000000000,3,S02_v1.0_T3,0,60,6.9059214592,ok,1,0.9996933863,nmf,torchnmf,cpu,float32,platform_onset,analysis_window_end,3.0000000000,12.0000000000,30,120,90,nonstep,False,True,True,subject_mean_step_onset,True,nonstep,nonstep,right,L,young,True,replace_v3d_meta_prefilter,step_l,12.0000000000,9.0000000000
global_nonstep,S02,1.0000000000,3,S02_v1.0_T3,0,61,6.8991379738,ok,1,0.9996933863,nmf,torchnmf,cpu,float32,platform_onset,analysis_window_end,3.0000000000,12.0000000000,30,120,90,nonstep,False,True,True,subject_mean_step_onset,True,nonstep,nonstep,right,L,young,True,replace_v3d_meta_prefilter,step_l,12.0000000000,9.0000000000
global_nonstep,S02,1.0000000000,3,S02_v1.0_T3,0,62,6.8923540115,ok,1,0.9996933863,nmf,torchnmf,cpu,float32,platform_onset,analysis_window_end,3.0000000000,12.0000000000,30,120,90,nonstep,False,True,True,subject_mean_step_onset,True,nonstep,nonstep,right,L,young,True,replace_v3d_meta_prefilter,step_l,12.0000000000,9.0000000000
global_nonstep,S02,1.0000000000,3,S02_v1.0_T3,0,63,6.8855700493,ok,1,0.9996933863,nmf,torchnmf,cpu,float32,platform_onset,analysis_window_end,3.0000000000,12.0000000000,30,120,90,nonstep,False,True,True,subject_mean_step_onset,True,nonstep,nonstep,right,L,young,True,replace_v3d_meta_prefilter,step_l,12.0000000000,9.0000000000
global_nonstep,S02,1.0000000000,3,S02_v1.0_T3,0,64,6.8787860870,ok,1,0.9996933863,nmf,torchnmf,cpu,float32,platform_onset,analysis_window_end,3.0000000000,12.0000000000,30,120,90,nonstep,False,True,True,subject_mean_step_onset,True,nonstep,nonstep,right,L,young,True,replace_v3d_meta_prefilter,step_l,12.0000000000,9.0000000000
global_nonstep,S02,1.0000000000,3,S02_v1.0_T3,0,65,6.8720026016,ok,1,0.9996933863,nmf,torchnmf,cpu,float32,platform_onset,analysis_window_end,3.0000000000,12.0000000000,30,120,90,nonstep,False,True,True,subject_mean_step_onset,True,nonstep,nonstep,right,L,young,True,replace_v3d_meta_prefilter,step_l,12.0000000000,9.0000000000
global_nonstep,S02,1.0000000000,3,S02_v1.0_T3,0,66,6.8652186394,ok,1,0.9996933863,nmf,torchnmf,cpu,float32,platform_onset,analysis_window_end,3.0000000000,12.0000000000,30,120,90,nonstep,False,True,True,subject_mean_step_onset,True,nonstep,nonstep,right,L,young,True,replace_v3d_meta_prefilter,step_l,12.0000000000,9.0000000000
global_nonstep,S02,1.0000000000,3,S02_v1.0_T3,0,67,6.8583974838,ok,1,0.9996933863,nmf,torchnmf,cpu,float32,platform_onset,analysis_window_end,3.0000000000,12.0000000000,30,120,90,nonstep,False,True,True,subject_mean_step_onset,True,nonstep,nonstep,right,L,young,True,replace_v3d_meta_prefilter,step_l,12.0000000000,9.0000000000
global_nonstep,S02,1.0000000000,3,S02_v1.0_T3,0,68,6.8515763283,ok,1,0.9996933863,nmf,torchnmf,cpu,float32,platform_onset,analysis_window_end,3.0000000000,12.0000000000,30,120,90,nonstep,False,True,True,subject_mean_step_onset,True,nonstep,nonstep,right,L,young,True,replace_v3d_meta_prefilter,step_l,12.0000000000,9.0000000000
global_nonstep,S02,1.0000000000,3,S02_v1.0_T3,0,69,6.8447556496,ok,1,0.9996933863,nmf,torchnmf,cpu,float32,platform_onset,analysis_window_end,3.0000000000,12.0000000000,30,120,90,nonstep,False,True,True,subject_mean_step_onset,True,nonstep,nonstep,right,L,young,True,replace_v3d_meta_prefilter,step_l,12.0000000000,9.0000000000
global_nonstep,S02,1.0000000000,3,S02_v1.0_T3,0,70,6.8379344940,ok,1,0.9996933863,nmf,torchnmf,cpu,float32,platform_onset,analysis_window_end,3.0000000000,12.0000000000,30,120,90,nonstep,False,True,True,subject_mean_step_onset,True,nonstep,nonstep,right,L,young,True,replace_v3d_meta_prefilter,step_l,12.0000000000,9.0000000000
global_nonstep,S02,1.0000000000,3,S02_v1.0_T3,0,71,6.8311133385,ok,1,0.9996933863,nmf,torchnmf,cpu,float32,platform_onset,analysis_window_end,3.0000000000,12.0000000000,30,120,90,nonstep,False,True,True,subject_mean_step_onset,True,nonstep,nonstep,right,L,young,True,replace_v3d_meta_prefilter,step_l,12.0000000000,9.0000000000
global_nonstep,S02,1.0000000000,3,S02_v1.0_T3,0,72,6.8242921829,ok,1,0.9996933863,nmf,torchnmf,cpu,float32,platform_onset,analysis_window_end,3.0000000000,12.0000000000,30,120,90,nonstep,False,True,True,subject_mean_step_onset,True,nonstep,nonstep,right,L,young,True,replace_v3d_meta_prefilter,step_l,12.0000000000,9.0000000000
global_nonstep,S02,1.0000000000,3,S02_v1.0_T3,0,73,6.8174710274,ok,1,0.9996933863,nmf,torchnmf,cpu,float32,platform_onset,analysis_window_end,3.0000000000,12.0000000000,30,120,90,nonstep,False,True,True,subject_mean_step_onset,True,nonstep,nonstep,right,L,young,True,replace_v3d_meta_prefilter,step_l,12.0000000000,9.0000000000
global_nonstep,S02,1.0000000000,3,S02_v1.0_T3,0,74,6.8106498718,ok,1,0.9996933863,nmf,torchnmf,cpu,float32,platform_onset,analysis_window_end,3.0000000000,12.0000000000,30,120,90,nonstep,False,True,True,subject_mean_step_onset,True,nonstep,nonstep,right,L,young,True,replace_v3d_meta_prefilter,step_l,12.0000000000,9.0000000000
global_nonstep,S02,1.0000000000,3,S02_v1.0_T3,0,75,6.8038291931,ok,1,0.9996933863,nmf,torchnmf,cpu,float32,platform_onset,analysis_window_end,3.0000000000,12.0000000000,30,120,90,nonstep,False,True,True,subject_mean_step_onset,True,nonstep,nonstep,right,L,young,True,replace_v3d_meta_prefilter,step_l,12.0000000000,9.0000000000
global_nonstep,S02,1.0000000000,3,S02_v1.0_T3,0,76,6.7970080376,ok,1,0.9996933863,nmf,torchnmf,cpu,float32,platform_onset,analysis_window_end,3.0000000000,12.0000000000,30,120,90,nonstep,False,True,True,subject_mean_step_onset,True,nonstep,nonstep,right,L,young,True,replace_v3d_meta_prefilter,step_l,12.0000000000,9.0000000000
global_nonstep,S02,1.0000000000,3,S02_v1.0_T3,0,77,6.7901868820,ok,1,0.9996933863,nmf,torchnmf,cpu,float32,platform_onset,analysis_window_end,3.0000000000,12.0000000000,30,120,90,nonstep,False,True,True,subject_mean_step_onset,True,nonstep,nonstep,right,L,young,True,replace_v3d_meta_prefilter,step_l,12.0000000000,9.0000000000
global_nonstep,S02,1.0000000000,3,S02_v1.0_T3,0,78,6.7838616371,ok,1,0.9996933863,nmf,torchnmf,cpu,float32,platform_onset,analysis_window_end,3.0000000000,12.0000000000,30,120,90,nonstep,False,True,True,subject_mean_step_onset,True,nonstep,nonstep,right,L,young,True,replace_v3d_meta_prefilter,step_l,12.0000000000,9.0000000000
global_nonstep,S02,1.0000000000,3,S02_v1.0_T3,0,79,6.7775363922,ok,1,0.9996933863,nmf,torchnmf,cpu,float32,platform_onset,analysis_window_end,3.0000000000,12.0000000000,30,120,90,nonstep,False,True,True,subject_mean_step_onset,True,nonstep,nonstep,right,L,young,True,replace_v3d_meta_prefilter,step_l,12.0000000000,9.0000000000
global_nonstep,S02,1.0000000000,3,S02_v1.0_T3,0,80,6.7712106705,ok,1,0.9996933863,nmf,torchnmf,cpu,float32,platform_onset,analysis_window_end,3.0000000000,12.0000000000,30,120,90,nonstep,False,True,True,subject_mean_step_onset,True,nonstep,nonstep,right,L,young,True,replace_v3d_meta_prefilter,step_l,12.0000000000,9.0000000000
global_nonstep,S02,1.0000000000,3,S02_v1.0_T3,0,81,6.7648854256,ok,1,0.9996933863,nmf,torchnmf,cpu,float32,platform_onset,analysis_window_end,3.0000000000,12.0000000000,30,120,90,nonstep,False,True,True,subject_mean_step_onset,True,nonstep,nonstep,right,L,young,True,replace_v3d_meta_prefilter,step_l,12.0000000000,9.0000000000
global_nonstep,S02,1.0000000000,3,S02_v1.0_T3,0,82,6.7585601807,ok,1,0.9996933863,nmf,torchnmf,cpu,float32,platform_onset,analysis_window_end,3.0000000000,12.0000000000,30,120,90,nonstep,False,True,True,subject_mean_step_onset,True,nonstep,nonstep,right,L,young,True,replace_v3d_meta_prefilter,step_l,12.0000000000,9.0000000000
global_nonstep,S02,1.0000000000,3,S02_v1.0_T3,0,83,6.7522349358,ok,1,0.9996933863,nmf,torchnmf,cpu,float32,platform_onset,analysis_window_end,3.0000000000,12.0000000000,30,120,90,nonstep,False,True,True,subject_mean_step_onset,True,nonstep,nonstep,right,L,young,True,replace_v3d_meta_prefilter,step_l,12.0000000000,9.0000000000
global_nonstep,S02,1.0000000000,3,S02_v1.0_T3,0,84,6.7459096909,ok,1,0.9996933863,nmf,torchnmf,cpu,float32,platform_onset,analysis_window_end,3.0000000000,12.0000000000,30,120,90,nonstep,False,True,True,subject_mean_step_onset,True,nonstep,nonstep,right,L,young,True,replace_v3d_meta_prefilter,step_l,12.0000000000,9.0000000000
global_nonstep,S02,1.0000000000,3,S02_v1.0_T3,0,85,6.7395844460,ok,1,0.9996933863,nmf,torchnmf,cpu,float32,platform_onset,analysis_window_end,3.0000000000,12.0000000000,30,120,90,nonstep,False,True,True,subject_mean_step_onset,True,nonstep,nonstep,right,L,young,True,replace_v3d_meta_prefilter,step_l,12.0000000000,9.0000000000
global_nonstep,S02,1.0000000000,3,S02_v1.0_T3,0,86,6.7332587242,ok,1,0.9996933863,nmf,torchnmf,cpu,float32,platform_onset,analysis_window_end,3.0000000000,12.0000000000,30,120,90,nonstep,False,True,True,subject_mean_step_onset,True,nonstep,nonstep,right,L,young,True,replace_v3d_meta_prefilter,step_l,12.0000000000,9.0000000000
global_nonstep,S02,1.0000000000,3,S02_v1.0_T3,0,87,6.7269334793,ok,1,0.9996933863,nmf,torchnmf,cpu,float32,platform_onset,analysis_window_end,3.0000000000,12.0000000000,30,120,90,nonstep,False,True,True,subject_mean_step_onset,True,nonstep,nonstep,right,L,young,True,replace_v3d_meta_prefilter,step_l,12.0000000000,9.0000000000
global_nonstep,S02,1.0000000000,3,S02_v1.0_T3,0,88,6.7206082344,ok,1,0.9996933863,nmf,torchnmf,cpu,float32,platform_onset,analysis_window_end,3.0000000000,12.0000000000,30,120,90,nonstep,False,True,True,subject_mean_step_onset,True,nonstep,nonstep,right,L,young,True,replace_v3d_meta_prefilter,step_l,12.0000000000,9.0000000000
global_nonstep,S02,1.0000000000,3,S02_v1.0_T3,0,89,6.7152748108,ok,1,0.9996933863,nmf,torchnmf,cpu,float32,platform_onset,analysis_window_end,3.0000000000,12.0000000000,30,120,90,nonstep,False,True,True,subject_mean_step_onset,True,nonstep,nonstep,right,L,young,True,replace_v3d_meta_prefilter,step_l,12.0000000000,9.0000000000
global_nonstep,S02,1.0000000000,3,S02_v1.0_T3,0,90,6.7099418640,ok,1,0.9996933863,nmf,torchnmf,cpu,float32,platform_onset,analysis_window_end,3.0000000000,12.0000000000,30,120,90,nonstep,False,True,True,subject_mean_step_onset,True,nonstep,nonstep,right,L,young,True,replace_v3d_meta_prefilter,step_l,12.0000000000,9.0000000000
global_nonstep,S02,1.0000000000,3,S02_v1.0_T3,0,91,6.7046084404,ok,1,0.9996933863,nmf,torchnmf,cpu,float32,platform_onset,analysis_window_end,3.0000000000,12.0000000000,30,120,90,nonstep,False,True,True,subject_mean_step_onset,True,nonstep,nonstep,right,L,young,True,replace_v3d_meta_prefilter,step_l,12.0000000000,9.0000000000
global_nonstep,S02,1.0000000000,3,S02_v1.0_T3,0,92,6.6992754936,ok,1,0.9996933863,nmf,torchnmf,cpu,float32,platform_onset,analysis_window_end,3.0000000000,12.0000000000,30,120,90,nonstep,False,True,True,subject_mean_step_onset,True,nonstep,nonstep,right,L,young,True,replace_v3d_meta_prefilter,step_l,12.0000000000,9.0000000000
global_nonstep,S02,1.0000000000,3,S02_v1.0_T3,0,93,6.6939420700,ok,1,0.9996933863,nmf,torchnmf,cpu,float32,platform_onset,analysis_window_end,3.0000000000,12.0000000000,30,120,90,nonstep,False,True,True,subject_mean_step_onset,True,nonstep,nonstep,right,L,young,True,replace_v3d_meta_prefilter,step_l,12.0000000000,9.0000000000
global_nonstep,S02,1.0000000000,3,S02_v1.0_T3,0,94,6.6886091232,ok,1,0.9996933863,nmf,torchnmf,cpu,float32,platform_onset,analysis_window_end,3.0000000000,12.0000000000,30,120,90,nonstep,False,True,True,subject_mean_step_onset,True,nonstep,nonstep,right,L,young,True,replace_v3d_meta_prefilter,step_l,12.0000000000,9.0000000000
global_nonstep,S02,1.0000000000,3,S02_v1.0_T3,0,95,6.6832756996,ok,1,0.9996933863,nmf,torchnmf,cpu,float32,platform_onset,analysis_window_end,3.0000000000,12.0000000000,30,120,90,nonstep,False,True,True,subject_mean_step_onset,True,nonstep,nonstep,right,L,young,True,replace_v3d_meta_prefilter,step_l,12.0000000000,9.0000000000
global_nonstep,S02,1.0000000000,3,S02_v1.0_T3,0,96,6.6779427528,ok,1,0.9996933863,nmf,torchnmf,cpu,float32,platform_onset,analysis_window_end,3.0000000000,12.0000000000,30,120,90,nonstep,False,True,True,subject_mean_step_onset,True,nonstep,nonstep,right,L,young,True,replace_v3d_meta_prefilter,step_l,12.0000000000,9.0000000000
global_nonstep,S02,1.0000000000,3,S02_v1.0_T3,0,97,6.6726093292,ok,1,0.9996933863,nmf,torchnmf,cpu,float32,platform_onset,analysis_window_end,3.0000000000,12.0000000000,30,120,90,nonstep,False,True,True,subject_mean_step_onset,True,nonstep,nonstep,right,L,young,True,replace_v3d_meta_prefilter,step_l,12.0000000000,9.0000000000
global_nonstep,S02,1.0000000000,3,S02_v1.0_T3,0,98,6.6672763824,ok,1,0.9996933863,nmf,torchnmf,cpu,float32,platform_onset,analysis_window_end,3.0000000000,12.0000000000,30,120,90,nonstep,False,True,True,subject_mean_step_onset,True,nonstep,nonstep,right,L,young,True,replace_v3d_meta_prefilter,step_l,12.0000000000,9.0000000000
global_nonstep,S02,1.0000000000,3,S02_v1.0_T3,0,99,6.6619429588,ok,1,0.9996933863,nmf,torchnmf,cpu,float32,platform_onset,analysis_window_end,3.0000000000,12.0000000000,30,120,90,nonstep,False,True,True,subject_mean_step_onset,True,nonstep,nonstep,right,L,young,True,replace_v3d_meta_prefilter,step_l,12.0000000000,9.0000000000
global_nonstep,S02,1.0000000000,4,S02_v1.0_T4,0,0,7.5663657188,ok,1,0.9997279247,nmf,torchnmf,cpu,float32,platform_onset,analysis_window_end,3.0000000000,12.0000000000,30,120,90,nonstep,False,True,True,subject_mean_step_onset,True,footlift,footlift,right,L,young,True,replace_v3d_meta_prefilter,step_l,12.0000000000,9.0000000000
global_nonstep,S02,1.0000000000,4,S02_v1.0_T4,0,1,7.5663743019,ok,1,0.9997279247,nmf,torchnmf,cpu,float32,platform_onset,analysis_window_end,3.0000000000,12.0000000000,30,120,90,nonstep,False,True,True,subject_mean_step_onset,True,footlift,footlift,right,L,young,True,replace_v3d_meta_prefilter,step_l,12.0000000000,9.0000000000
