group_id,subject,velocity,trial_num,trial_id,component_index,frame_idx,h_value,status,n_components,vaf,extractor_type,extractor_backend,analysis_window_onset_column,analysis_window_offset_column,analysis_window_start,analysis_window_end,analysis_window_start_device,analysis_window_end_device,analysis_window_duration_device_frames,analysis_step_class,analysis_is_step,analysis_is_nonstep,analysis_is_mixed_flag,analysis_window_source,analysis_window_is_surrogate,analysis_state,analysis_state_norm,analysis_stance_side,analysis_dominant_side,analysis_age_group,analysis_selected_group,analysis_selection_rule,analysis_major_step_side,analysis_subject_mean_step_onset,analysis_subject_mean_step_latency
global_nonstep,S01,1.0000000000,3,S01_v1.0_T3,0,0,3.9310035706,ok,1,0.9989991961,nmf,sklearn_nmf,platform_onset,analysis_window_end,3.0000000000,12.0000000000,30,120,90,nonstep,False,True,True,subject_mean_step_onset,True,nonstep,nonstep,left,R,young,True,replace_v3d_meta_prefilter,step_r,12.0000000000,9.0000000000
global_nonstep,S01,1.0000000000,3,S01_v1.0_T3,0,1,3.9313106537,ok,1,0.9989991961,nmf,sklearn_nmf,platform_onset,analysis_window_end,3.0000000000,12.0000000000,30,120,90,nonstep,False,True,True,subject_mean_step_onset,True,nonstep,nonstep,left,R,young,True,replace_v3d_meta_prefilter,step_r,12.0000000000,9.0000000000
global_nonstep,S01,1.0000000000,3,S01_v1.0_T3,0,2,3.9316177368,ok,1,0.9989991961,nmf,sklearn_nmf,platform_onset,analysis_window_end,3.0000000000,12.0000000000,30,120,90,nonstep,False,True,True,subject_mean_step_onset,True,nonstep,nonstep,left,R,young,True,replace_v3d_meta_prefilter,step_r,12.0000000000,9.0000000000
global_nonstep,S01,1.0000000000,3,S01_v1.0_T3,0,3,3.9319248199,ok,1,0.9989991961,nmf,sklearn_nmf,platform_onset,analysis_window_end,3.0000000000,12.0000000000,30,120,90,nonstep,False,True,True,subject_mean_step_onset,True,nonstep,nonstep,left,R,young,True,replace_v3d_meta_prefilter,step_r,12.0000000000,9.0000000000
global_nonstep,S01,1.0000000000,3,S01_v1.0_T3,0,4,3.9322319031,ok,1,0.9989991961,nmf,sklearn_nmf,platform_onset,analysis_window_end,3.0000000000,12.0000000000,30,120,90,nonstep,False,True,True,subject_mean_step_onset,True,nonstep,nonstep,left,R,young,True,replace_v3d_meta_prefilter,step_r,12.0000000000,9.0000000000
global_nonstep,S01,1.0000000000,3,S01_v1.0_T3,0,5,3.9325389862,ok,1,0.9989991961,nmf,sklearn_nmf,platform_onset,analysis_window_end,3.0000000000,12.0000000000,30,120,90,nonstep,False,True,True,subject_mean_step_onset,True,nonstep,nonstep,left,R,young,True,replace_v3d_meta_prefilter,step_r,12.0000000000,9.0000000000
global_nonstep,S01,1.0000000000,3,S01_v1.0_T3,0,6,3.9328458309,ok,1,0.9989991961,nmf,sklearn_nmf,platform_onset,analysis_window_end,3.0000000000,12.0000000000,30,120,90,nonstep,False,True,True,subject_mean_step_onset,True,nonstep,nonstep,left,R,young,True,replace_v3d_meta_prefilter,step_r,12.0000000000,9.0000000000
global_nonstep,S01,1.0000000000,3,S01_v1.0_T3,0,7,3.9331529140,ok,1,0.9989991961,nmf,sklearn_nmf,platform_onset,analysis_window_end,3.0000000000,12.0000000000,30,120,90,nonstep,False,True,True,subject_mean_step_onset,True,nonstep,nonstep,left,R,young,True,replace_v3d_meta_prefilter,step_r,12.0000000000,9.0000000000
global_nonstep,S01,1.0000000000,3,S01_v1.0_T3,0,8,3.9334599972,ok,1,0.9989991961,nmf,sklearn_nmf,platform_onset,analysis_window_end,3.0000000000,12.0000000000,30,120,90,nonstep,False,True,True,subject_mean_step_onset,True,nonstep,nonstep,left,R,young,True,replace_v3d_meta_prefilter,step_r,12.0000000000,9.0000000000
global_nonstep,S01,1.0000000000,3,S01_v1.0_T3,0,9,3.9337670803,ok,1,0.9989991961,nmf,sklearn_nmf,platform_onset,analysis_window_end,3.0000000000,12.0000000000,30,120,90,nonstep,False,True,True,subject_mean_step_onset,True,nonstep,nonstep,left,R,young,True,replace_v3d_meta_prefilter,step_r,12.0000000000,9.0000000000
global_nonstep,S01,1.0000000000,3,S01_v1.0_T3,0,10,3.9340741634,ok,1,0.9989991961,nmf,sklearn_nmf,platform_onset,analysis_window_end,3.0000000000,12.0000000000,30,120,90,nonstep,False,True,True,subject_mean_step_onset,True,nonstep,nonstep,left,R,young,True,replace_v3d_meta_prefilter,step_r,12.0000000000,9.0000000000
global_nonstep,S01,1.0000000000,3,S01_v1.0_T3,0,11,3.9343812466,ok,1,0.9989991961,nmf,sklearn_nmf,platform_onset,analysis_window_end,3.0000000000,12.0000000000,30,120,90,nonstep,False,True,True,subject_mean_step_onset,True,nonstep,nonstep,left,R,young,True,replace_v3d_meta_prefilter,step_r,12.0000000000,9.0000000000
global_nonstep,S01,1.0000000000,3,S01_v1.0_T3,0,12,3.9326589108,ok,1,0.9989991961,nmf,sklearn_nmf,platform_onset,analysis_window_end,3.0000000000,12.0000000000,30,120,90,nonstep,False,True,True,subject_mean_step_onset,True,nonstep,nonstep,left,R,young,True,replace_v3d_meta_prefilter,step_r,12.0000000000,9.0000000000
global_nonstep,S01,1.0000000000,3,S01_v1.0_T3,0,13,3.9309363365,ok,1,0.9989991961,nmf,sklearn_nmf,platform_onset,analysis_window_end,3.0000000000,12.0000000000,30,120,90,nonstep,False,True,True,subject_mean_step_onset,True,nonstep,nonstep,left,R,young,True,replace_v3d_meta_prefilter,step_r,12.0000000000,9.0000000000
global_nonstep,S01,1.0000000000,3,S01_v1.0_T3,0,14,3.9292140007,ok,1,0.9989991961,nmf,sklearn_nmf,platform_onset,analysis_window_end,3.0000000000,12.0000000000,30,120,90,nonstep,False,True,True,subject_mean_step_onset,True,nonstep,nonstep,left,R,young,True,replace_v3d_meta_prefilter,step_r,12.0000000000,9.0000000000
global_nonstep,S01,1.0000000000,3,S01_v1.0_T3,0,15,3.9274914265,ok,1,0.9989991961,nmf,sklearn_nmf,platform_onset,analysis_window_end,3.0000000000,12.0000000000,30,120,90,nonstep,False,True,True,subject_mean_step_onset,True,nonstep,nonstep,left,R,young,True,replace_v3d_meta_prefilter,step_r,12.0000000000,9.0000000000
global_nonstep,S01,1.0000000000,3,S01_v1.0_T3,0,16,3.9257690907,ok,1,0.9989991961,nmf,sklearn_nmf,platform_onset,analysis_window_end,3.0000000000,12.0000000000,30,120,90,nonstep,False,True,True,subject_mean_step_onset,True,nonstep,nonstep,left,R,young,True,replace_v3d_meta_prefilter,step_r,12.0000000000,9.0000000000
global_nonstep,S01,1.0000000000,3,S01_v1.0_T3,0,17,3.9240465164,ok,1,0.9989991961,nmf,sklearn_nmf,platform_onset,analysis_window_end,3.0000000000,12.0000000000,30,120,90,nonstep,False,True,True,subject_mean_step_onset,True,nonstep,nonstep,left,R,young,True,replace_v3d_meta_prefilter,step_r,12.0000000000,9.0000000000
global_nonstep,S01,1.0000000000,3,S01_v1.0_T3,0,18,3.9223241806,ok,1,0.9989991961,nmf,sklearn_nmf,platform_onset,analysis_window_end,3.0000000000,12.0000000000,30,120,90,nonstep,False,True,True,subject_mean_step_onset,True,nonstep,nonstep,left,R,young,True,replace_v3d_meta_prefilter,step_r,12.0000000000,9.0000000000
global_nonstep,S01,1.0000000000,3,S01_v1.0_T3,0,19,3.9206016064,ok,1,0.9989991961,nmf,sklearn_nmf,platform_onset,analysis_window_end,3.0000000000,12.0000000000,30,120,90,nonstep,False,True,True,subject_mean_step_onset,True,nonstep,nonstep,left,R,young,True,replace_v3d_meta_prefilter,step_r,12.0000000000,9.0000000000
global_nonstep,S01,1.0000000000,3,S01_v1.0_T3,0,20,3.9188792706,ok,1,0.9989991961,nmf,sklearn_nmf,platform_onset,analysis_window_end,3.0000000000,12.0000000000,30,120,90,nonstep,False,True,True,subject_mean_step_onset,True,nonstep,nonstep,left,R,young,True,replace_v3d_meta_prefilter,step_r,12.0000000000,9.0000000000
global_nonstep,S01,1.0000000000,3,S01_v1.0_T3,0,21,3.9171566963,ok,1,0.9989991961,nmf,sklearn_nmf,platform_onset,analysis_window_end,3.0000000000,12.0000000000,30,120,90,nonstep,False,True,True,subject_mean_step_onset,True,nonstep,nonstep,left,R,young,True,replace_v3d_meta_prefilter,step_r,12.0000000000,9.0000000000
global_nonstep,S01,1.0000000000,3,S01_v1.0_T3,0,22,3.9154343605,ok,1,0.9989991961,nmf,sklearn_nmf,platform_onset,analysis_window_end,3.0000000000,12.0000000000,30,120,90,nonstep,False,True,True,subject_mean_step_onset,True,nonstep,nonstep,left,R,young,True,replace_v3d_meta_prefilter,step_r,12.0000000000,9.0000000000
global_nonstep,S01,1.0000000000,3,S01_v1.0_T3,0,23,3.9118354321,ok,1,0.9989991961,nmf,sklearn_nmf,platform_onset,analysis_window_end,3.0000000000,12.0000000000,30,120,90,nonstep,False,True,True,subject_mean_step_onset,True,nonstep,nonstep,left,R,young,True,replace_v3d_meta_prefilter,step_r,12.0000000000,9.0000000000
global_nonstep,S01,1.0000000000,3,S01_v1.0_T3,0,24,3.9082367420,ok,1,0.9989991961,nmf,sklearn_nmf,platform_onset,analysis_window_end,3.0000000000,12.0000000000,30,120,90,nonstep,False,True,True,subject_mean_step_onset,True,nonstep,nonstep,left,R,young,True,replace_v3d_meta_prefilter,step_r,12.0000000000,9.0000000000
global_nonstep,S01,1.0000000000,3,S01_v1.0_T3,0,25,3.9046378136,ok,1,0.9989991961,nmf,sklearn_nmf,platform_onset,analysis_window_end,3.0000000000,12.0000000000,30,120,90,nonstep,False,True,True,subject_mean_step_onset,True,nonstep,nonstep,left,R,young,True,replace_v3d_meta_prefilter,step_r,12.0000000000,9.0000000000
global_nonstep,S01,1.0000000000,3,S01_v1.0_T3,0,26,3.9010391235,ok,1,0.9989991961,nmf,sklearn_nmf,platform_onset,analysis_window_end,3.0000000000,12.0000000000,30,120,90,nonstep,False,True,True,subject_mean_step_onset,True,nonstep,nonstep,left,R,young,True,replace_v3d_meta_prefilter,step_r,12.0000000000,9.0000000000
global_nonstep,S01,1.0000000000,3,S01_v1.0_T3,0,27,3.8974401951,ok,1,0.9989991961,nmf,sklearn_nmf,platform_onset,analysis_window_end,3.0000000000,12.0000000000,30,120,90,nonstep,False,True,True,subject_mean_step_onset,True,nonstep,nonstep,left,R,young,True,replace_v3d_meta_prefilter,step_r,12.0000000000,9.0000000000
global_nonstep,S01,1.0000000000,3,S01_v1.0_T3,0,28,3.8938415051,ok,1,0.9989991961,nmf,sklearn_nmf,platform_onset,analysis_window_end,3.0000000000,12.0000000000,30,120,90,nonstep,False,True,True,subject_mean_step_onset,True,nonstep,nonstep,left,R,young,True,replace_v3d_meta_prefilter,step_r,12.0000000000,9.0000000000
global_nonstep,S01,1.0000000000,3,S01_v1.0_T3,0,29,3.8902425766,ok,1,0.9989991961,nmf,sklearn_nmf,platform_onset,analysis_window_end,3.0000000000,12.0000000000,30,120,90,nonstep,False,True,True,subject_mean_step_onset,True,nonstep,nonstep,left,R,young,True,replace_v3d_meta_prefilter,step_r,12.0000000000,9.0000000000
global_nonstep,S01,1.0000000000,3,S01_v1.0_T3,0,30,3.8866438866,ok,1,0.9989991961,nmf,sklearn_nmf,platform_onset,analysis_window_end,3.0000000000,12.0000000000,30,120,90,nonstep,False,True,True,subject_mean_step_onset,True,nonstep,nonstep,left,R,young,True,replace_v3d_meta_prefilter,step_r,12.0000000000,9.0000000000
global_nonstep,S01,1.0000000000,3,S01_v1.0_T3,0,31,3.8830449581,ok,1,0.9989991961,nmf,sklearn_nmf,platform_onset,analysis_window_end,3.0000000000,12.0000000000,30,120,90,nonstep,False,True,True,subject_mean_step_onset,True,nonstep,nonstep,left,R,young,True,replace_v3d_meta_prefilter,step_r,12.0000000000,9.0000000000
global_nonstep,S01,1.0000000000,3,S01_v1.0_T3,0,32,3.8794462681,ok,1,0.9989991961,nmf,sklearn_nmf,platform_onset,analysis_window_end,3.0000000000,12.0000000000,30,120,90,nonstep,False,True,True,subject_mean_step_onset,True,nonstep,nonstep,left,R,young,True,replace_v3d_meta_prefilter,step_r,12.0000000000,9.0000000000
global_nonstep,S01,1.0000000000,3,S01_v1.0_T3,0,33,3.8758473396,ok,1,0.9989991961,nmf,sklearn_nmf,platform_onset,analysis_window_end,3.0000000000,12.0000000000,30,120,90,nonstep,False,True,True,subject_mean_step_onset,True,nonstep,nonstep,left,R,young,True,replace_v3d_meta_prefilter,step_r,12.0000000000,9.0000000000
global_nonstep,S01,1.0000000000,3,S01_v1.0_T3,0,34,3.8706643581,ok,1,0.9989991961,nmf,sklearn_nmf,platform_onset,analysis_window_end,3.0000000000,12.0000000000,30,120,90,nonstep,False,True,True,subject_mean_step_onset,True,nonstep,nonstep,left,R,young,True,replace_v3d_meta_prefilter,step_r,12.0000000000,9.0000000000
global_nonstep,S01,1.0000000000,3,S01_v1.0_T3,0,35,3.8654811382,ok,1,0.9989991961,nmf,sklearn_nmf,platform_onset,analysis_window_end,3.0000000000,12.0000000000,30,120,90,nonstep,False,True,True,subject_mean_step_onset,True,nonstep,nonstep,left,R,young,True,replace_v3d_meta_prefilter,step_r,12.0000000000,9.0000000000
global_nonstep,S01,1.0000000000,3,S01_v1.0_T3,0,36,3.8602981567,ok,1,0.9989991961,nmf,sklearn_nmf,platform_onset,analysis_window_end,3.0000000000,12.0000000000,30,120,90,nonstep,False,True,True,subject_mean_step_onset,True,nonstep,nonstep,left,R,young,True,replace_v3d_meta_prefilter,step_r,12.0000000000,9.0000000000
global_nonstep,S01,1.0000000000,3,S01_v1.0_T3,0,37,3.8551151752,ok,1,0.9989991961,nmf,sklearn_nmf,platform_onset,analysis_window_end,3.0000000000,12.0000000000,30,120,90,nonstep,False,True,True,subject_mean_step_onset,True,nonstep,nonstep,left,R,young,True,replace_v3d_meta_prefilter,step_r,12.0000000000,9.0000000000
global_nonstep,S01,1.0000000000,3,S01_v1.0_T3,0,38,3.8499319553,ok,1,0.9989991961,nmf,sklearn_nmf,platform_onset,analysis_window_end,3.0000000000,12.0000000000,30,120,90,nonstep,False,True,True,subject_mean_step_onset,True,nonstep,nonstep,left,R,young,True,replace_v3d_meta_prefilter,step_r,12.0000000000,9.0000000000
global_nonstep,S01,1.0000000000,3,S01_v1.0_T3,0,39,3.8447489738,ok,1,0.9989991961,nmf,sklearn_nmf,platform_onset,analysis_window_end,3.0000000000,12.0000000000,30,120,90,nonstep,False,True,True,subject_mean_step_onset,True,nonstep,nonstep,left,R,young,True,replace_v3d_meta_prefilter,step_r,12.0000000000,9.0000000000
global_nonstep,S01,1.0000000000,3,S01_v1.0_T3,0,40,3.8395657539,ok,1,0.9989991961,nmf,sklearn_nmf,platform_onset,analysis_window_end,3.0000000000,12.0000000000,30,120,90,nonstep,False,True,True,subject_mean_step_onset,True,nonstep,nonstep,left,R,young,True,replace_v3d_meta_prefilter,step_r,12.0000000000,9.0000000000
global_nonstep,S01,1.0000000000,3,S01_v1.0_T3,0,41,3.8343827724,ok,1,0.9989991961,nmf,sklearn_nmf,platform_onset,analysis_window_end,3.0000000000,12.0000000000,30,120,90,nonstep,False,True,True,subject_mean_step_onset,True,nonstep,nonstep,left,R,young,True,replace_v3d_meta_prefilter,step_r,12.0000000000,9.0000000000
global_nonstep,S01,1.0000000000,3,S01_v1.0_T3,0,42,3.8291997910,ok,1,0.9989991961,nmf,sklearn_nmf,platform_onset,analysis_window_end,3.0000000000,12.0000000000,30,120,90,nonstep,False,True,True,subject_mean_step_onset,True,nonstep,nonstep,left,R,young,True,replace_v3d_meta_prefilter,step_r,12.0000000000,9.0000000000
global_nonstep,S01,1.0000000000,3,S01_v1.0_T3,0,43,3.8240165710,ok,1,0.9989991961,nmf,sklearn_nmf,platform_onset,analysis_window_end,3.0000000000,12.0000000000,30,120,90,nonstep,False,True,True,subject_mean_step_onset,True,nonstep,nonstep,left,R,young,True,replace_v3d_meta_prefilter,step_r,12.0000000000,9.0000000000
global_nonstep,S01,1.0000000000,3,S01_v1.0_T3,0,44,3.8188335896,ok,1,0.9989991961,nmf,sklearn_nmf,platform_onset,analysis_window_end,3.0000000000,12.0000000000,30,120,90,nonstep,False,True,True,subject_mean_step_onset,True,nonstep,nonstep,left,R,young,True,replace_v3d_meta_prefilter,step_r,12.0000000000,9.0000000000
global_nonstep,S01,1.0000000000,3,S01_v1.0_T3,0,45,3.8124761581,ok,1,0.9989991961,nmf,sklearn_nmf,platform_onset,analysis_window_end,3.0000000000,12.0000000000,30,120,90,nonstep,False,True,True,subject_mean_step_onset,True,nonstep,nonstep,left,R,young,True,replace_v3d_meta_prefilter,step_r,12.0000000000,9.0000000000
global_nonstep,S01,1.0000000000,3,S01_v1.0_T3,0,46,3.8061187267,ok,1,0.9989991961,nmf,sklearn_nmf,platform_onset,analysis_window_end,3.0000000000,12.0000000000,30,120,90,nonstep,False,True,True,subject_mean_step_onset,True,nonstep,nonstep,left,R,young,True,replace_v3d_meta_prefilter,step_r,12.0000000000,9.0000000000
global_nonstep,S01,1.0000000000,3,S01_v1.0_T3,0,47,3.7997612953,ok,1,0.9989991961,nmf,sklearn_nmf,platform_onset,analysis_window_end,3.0000000000,12.0000000000,30,120,90,nonstep,False,True,True,subject_mean_step_onset,True,nonstep,nonstep,left,R,young,True,replace_v3d_meta_prefilter,step_r,12.0000000000,9.0000000000
global_nonstep,S01,1.0000000000,3,S01_v1.0_T3,0,48,3.7934038639,ok,1,0.9989991961,nmf,sklearn_nmf,platform_onset,analysis_window_end,3.0000000000,12.0000000000,30,120,90,nonstep,False,True,True,subject_mean_step_onset,True,nonstep,nonstep,left,R,young,True,replace_v3d_meta_prefilter,step_r,12.0000000000,9.0000000000
global_nonstep,S01,1.0000000000,3,S01_v1.0_T3,0,49,3.7870464325,ok,1,0.9989991961,nmf,sklearn_nmf,platform_onset,analysis_window_end,3.0000000000,12.0000000000,30,120,90,nonstep,False,True,True,subject_mean_step_onset,True,nonstep,nonstep,left,R,young,True,replace_v3d_meta_prefilter,step_r,12.0000000000,9.0000000000
global_nonstep,S01,1.0000000000,3,S01_v1.0_T3,0,50,3.7806887627,ok,1,0.9989991961,nmf,sklearn_nmf,platform_onset,analysis_window_end,3.0000000000,12.0000000000,30,120,90,nonstep,False,True,True,subject_mean_step_onset,True,nonstep,nonstep,left,R,young,True,replace_v3d_meta_prefilter,step_r,12.0000000000,9.0000000000
global_nonstep,S01,1.0000000000,3,S01_v1.0_T3,0,51,3.7743313313,ok,1,0.9989991961,nmf,sklearn_nmf,platform_onset,analysis_window_end,3.0000000000,12.0000000000,30,120,90,nonstep,False,True,True,subject_mean_step_onset,True,nonstep,nonstep,left,R,young,True,replace_v3d_meta_prefilter,step_r,12.0000000000,9.0000000000
global_nonstep,S01,1.0000000000,3,S01_v1.0_T3,0,52,3.7679738998,ok,1,0.9989991961,nmf,sklearn_nmf,platform_onset,analysis_window_end,3.0000000000,12.0000000000,30,120,90,nonstep,False,True,True,subject_mean_step_onset,True,nonstep,nonstep,left,R,young,True,replace_v3d_meta_prefilter,step_r,12.0000000000,9.0000000000
global_nonstep,S01,1.0000000000,3,S01_v1.0_T3,0,53,3.7616164684,ok,1,0.9989991961,nmf,sklearn_nmf,platform_onset,analysis_window_end,3.0000000000,12.0000000000,30,120,90,nonstep,False,True,True,subject_mean_step_onset,True,nonstep,nonstep,left,R,young,True,replace_v3d_meta_prefilter,step_r,12.0000000000,9.0000000000
global_nonstep,S01,1.0000000000,3,S01_v1.0_T3,0,54,3.7552590370,ok,1,0.9989991961,nmf,sklearn_nmf,platform_onset,analysis_window_end,3.0000000000,12.0000000000,30,120,90,nonstep,False,True,True,subject_mean_step_onset,True,nonstep,nonstep,left,R,young,True,replace_v3d_meta_prefilter,step_r,12.0000000000,9.0000000000
global_nonstep,S01,1.0000000000,3,S01_v1.0_T3,0,55,3.7489016056,ok,1,0.9989991961,nmf,sklearn_nmf,platform_onset,analysis_window_end,3.0000000000,12.0000000000,30,120,90,nonstep,False,True,True,subject_mean_step_onset,True,nonstep,nonstep,left,R,young,True,replace_v3d_meta_prefilter,step_r,12.0000000000,9.0000000000
global_nonstep,S01,1.0000000000,3,S01_v1.0_T3,0,56,3.7418665886,ok,1,0.9989991961,nmf,sklearn_nmf,platform_onset,analysis_window_end,3.0000000000,12.0000000000,30,120,90,nonstep,False,True,True,subject_mean_step_onset,True,nonstep,nonstep,left,R,young,True,replace_v3d_meta_prefilter,step_r,12.0000000000,9.0000000000
global_nonstep,S01,1.0000000000,3,S01_v1.0_T3,0,57,3.7348313332,ok,1,0.9989991961,nmf,sklearn_nmf,platform_onset,analysis_window_end,3.0000000000,12.0000000000,30,120,90,nonstep,False,True,True,subject_mean_step_onset,True,nonstep,nonstep,left,R,young,True,replace_v3d_meta_prefilter,step_r,12.0000000000,9.0000000000
global_nonstep,S01,1.0000000000,3,S01_v1.0_T3,0,58,3.7277963161,ok,1,0.9989991961,nmf,sklearn_nmf,platform_onset,analysis_window_end,3.0000000000,12.0000000000,30,120,90,nonstep,False,True,True,subject_mean_step_onset,True,nonstep,nonstep,left,R,young,True,replace_v3d_meta_prefilter,step_r,12.0000000000,9.0000000000
global_nonstep,S01,1.0000000000,3,S01_v1.0_T3,0,59,3.7207610607,ok,1,0.9989991961,nmf,sklearn_nmf,platform_onset,analysis_window_end,3.0000000000,12.0000000000,30,120,90,nonstep,False,True,True,subject_mean_step_onset,True,nonstep,nonstep,left,R,young,True,replace_v3d_meta_prefilter,step_r,12.0000000000,9.0000000000
global_nonstep,S01,1.0000000000,3,S01_v1.0_T3,0,60,3.7137260437,ok,1,0.9989991961,nmf,sklearn_nmf,platform_onset,analysis_window_end,3.0000000000,12.0000000000,30,120,90,nonstep,False,True,True,subject_mean_step_onset,True,nonstep,nonstep,left,R,young,True,replace_v3d_meta_prefilter,step_r,12.0000000000,9.0000000000
global_nonstep,S01,1.0000000000,3,S01_v1.0_T3,0,61,3.7066907883,ok,1,0.9989991961,nmf,sklearn_nmf,platform_onset,analysis_window_end,3.0000000000,12.0000000000,30,120,90,nonstep,False,True,True,subject_mean_step_onset,True,nonstep,nonstep,left,R,young,True,replace_v3d_meta_prefilter,step_r,12.0000000000,9.0000000000
global_nonstep,S01,1.0000000000,3,S01_v1.0_T3,0,62,3.6996557713,ok,1,0.9989991961,nmf,sklearn_nmf,platform_onset,analysis_window_end,3.0000000000,12.0000000000,30,120,90,nonstep,False,True,True,subject_mean_step_onset,True,nonstep,nonstep,left,R,young,True,replace_v3d_meta_prefilter,step_r,12.0000000000,9.0000000000
global_nonstep,S01,1.0000000000,3,S01_v1.0_T3,0,63,3.6926205158,ok,1,0.9989991961,nmf,sklearn_nmf,platform_onset,analysis_window_end,3.0000000000,12.0000000000,30,120,90,nonstep,False,True,True,subject_mean_step_onset,True,nonstep,nonstep,left,R,young,True,replace_v3d_meta_prefilter,step_r,12.0000000000,9.0000000000
global_nonstep,S01,1.0000000000,3,S01_v1.0_T3,0,64,3.6855854988,ok,1,0.9989991961,nmf,sklearn_nmf,platform_onset,analysis_window_end,3.0000000000,12.0000000000,30,120,90,nonstep,False,True,True,subject_mean_step_onset,True,nonstep,nonstep,left,R,young,True,replace_v3d_meta_prefilter,step_r,12.0000000000,9.0000000000
global_nonstep,S01,1.0000000000,3,S01_v1.0_T3,0,65,3.6785502434,ok,1,0.9989991961,nmf,sklearn_nmf,platform_onset,analysis_window_end,3.0000000000,12.0000000000,30,120,90,nonstep,False,True,True,subject_mean_step_onset,True,nonstep,nonstep,left,R,young,True,replace_v3d_meta_prefilter,step_r,12.0000000000,9.0000000000
global_nonstep,S01,1.0000000000,3,S01_v1.0_T3,0,66,3.6715152264,ok,1,0.9989991961,nmf,sklearn_nmf,platform_onset,analysis_window_end,3.0000000000,12.0000000000,30,120,90,nonstep,False,True,True,subject_mean_step_onset,True,nonstep,nonstep,left,R,young,True,replace_v3d_meta_prefilter,step_r,12.0000000000,9.0000000000
global_nonstep,S01,1.0000000000,3,S01_v1.0_T3,0,67,3.6643495560,ok,1,0.9989991961,nmf,sklearn_nmf,platform_onset,analysis_window_end,3.0000000000,12.0000000000,30,120,90,nonstep,False,True,True,subject_mean_step_onset,True,nonstep,nonstep,left,R,young,True,replace_v3d_meta_prefilter,step_r,12.0000000000,9.0000000000
global_nonstep,S01,1.0000000000,3,S01_v1.0_T3,0,68,3.6571838856,ok,1,0.9989991961,nmf,sklearn_nmf,platform_onset,analysis_window_end,3.0000000000,12.0000000000,30,120,90,nonstep,False,True,True,subject_mean_step_onset,True,nonstep,nonstep,left,R,young,True,replace_v3d_meta_prefilter,step_r,12.0000000000,9.0000000000
global_nonstep,S01,1.0000000000,3,S01_v1.0_T3,0,69,3.6500182152,ok,1,0.9989991961,nmf,sklearn_nmf,platform_onset,analysis_window_end,3.0000000000,12.0000000000,30,120,90,nonstep,False,True,True,subject_mean_step_onset,True,nonstep,nonstep,left,R,young,True,replace_v3d_meta_prefilter,step_r,12.0000000000,9.0000000000
global_nonstep,S01,1.0000000000,3,S01_v1.0_T3,0,70,3.6428525448,ok,1,0.9989991961,nmf,sklearn_nmf,platform_onset,analysis_window_end,3.0000000000,12.0000000000,30,120,90,nonstep,False,True,True,subject_mean_step_onset,True,nonstep,nonstep,left,R,young,True,replace_v3d_meta_prefilter,step_r,12.0000000000,9.0000000000
global_nonstep,S01,1.0000000000,3,S01_v1.0_T3,0,71,3.6356868744,ok,1,0.9989991961,nmf,sklearn_nmf,platform_onset,analysis_window_end,3.0000000000,12.0000000000,30,120,90,nonstep,False,True,True,subject_mean_step_onset,True,nonstep,nonstep,left,R,young,True,replace_v3d_meta_prefilter,step_r,12.0000000000,9.0000000000
global_nonstep,S01,1.0000000000,3,S01_v1.0_T3,0,72,3.6285209656,ok,1,0.9989991961,nmf,sklearn_nmf,platform_onset,analysis_window_end,3.0000000000,12.0000000000,30,120,90,nonstep,False,True,True,subject_mean_step_onset,True,nonstep,nonstep,left,R,young,True,replace_v3d_meta_prefilter,step_r,12.0000000000,9.0000000000
global_nonstep,S01,1.0000000000,3,S01_v1.0_T3,0,73,3.6213552952,ok,1,0.9989991961,nmf,sklearn_nmf,platform_onset,analysis_window_end,3.0000000000,12.0000000000,30,120,90,nonstep,False,True,True,subject_mean_step_onset,True,nonstep,nonstep,left,R,young,True,replace_v3d_meta_prefilter,step_r,12.0000000000,9.0000000000
global_nonstep,S01,1.0000000000,3,S01_v1.0_T3,0,74,3.6141896248,ok,1,0.9989991961,nmf,sklearn_nmf,platform_onset,analysis_window_end,3.0000000000,12.0000000000,30,120,90,nonstep,False,True,True,subject_mean_step_onset,True,nonstep,nonstep,left,R,young,True,replace_v3d_meta_prefilter,step_r,12.0000000000,9.0000000000
global_nonstep,S01,1.0000000000,3,S01_v1.0_T3,0,75,3.6070239544,ok,1,0.9989991961,nmf,sklearn_nmf,platform_onset,analysis_window_end,3.0000000000,12.0000000000,30,120,90,nonstep,False,True,True,subject_mean_step_onset,True,nonstep,nonstep,left,R,young,True,replace_v3d_meta_prefilter,step_r,12.0000000000,9.0000000000
global_nonstep,S01,1.0000000000,3,S01_v1.0_T3,0,76,3.5998582840,ok,1,0.9989991961,nmf,sklearn_nmf,platform_onset,analysis_window_end,3.0000000000,12.0000000000,30,120,90,nonstep,False,True,True,subject_mean_step_onset,True,nonstep,nonstep,left,R,young,True,replace_v3d_meta_prefilter,step_r,12.0000000000,9.0000000000
global_nonstep,S01,1.0000000000,3,S01_v1.0_T3,0,77,3.5926926136,ok,1,0.9989991961,nmf,sklearn_nmf,platform_onset,analysis_window_end,3.0000000000,12.0000000000,30,120,90,nonstep,False,True,True,subject_mean_step_onset,True,nonstep,nonstep,left,R,young,True,replace_v3d_meta_prefilter,step_r,12.0000000000,9.0000000000
global_nonstep,S01,1.0000000000,3,S01_v1.0_T3,0,78,3.5859532356,ok,1,0.9989991961,nmf,sklearn_nmf,platform_onset,analysis_window_end,3.0000000000,12.0000000000,30,120,90,nonstep,False,True,True,subject_mean_step_onset,True,nonstep,nonstep,left,R,young,True,replace_v3d_meta_prefilter,step_r,12.0000000000,9.0000000000
global_nonstep,S01,1.0000000000,3,S01_v1.0_T3,0,79,3.5792138577,ok,1,0.9989991961,nmf,sklearn_nmf,platform_onset,analysis_window_end,3.0000000000,12.0000000000,30,120,90,nonstep,False,True,True,subject_mean_step_onset,True,nonstep,nonstep,left,R,young,True,replace_v3d_meta_prefilter,step_r,12.0000000000,9.0000000000
global_nonstep,S01,1.0000000000,3,S01_v1.0_T3,0,80,3.5724744797,ok,1,0.9989991961,nmf,sklearn_nmf,platform_onset,analysis_window_end,3.0000000000,12.0000000000,30,120,90,nonstep,False,True,True,subject_mean_step_onset,True,nonstep,nonstep,left,R,young,True,replace_v3d_meta_prefilter,step_r,12.0000000000,9.0000000000
global_nonstep,S01,1.0000000000,3,S01_v1.0_T3,0,81,3.5657351017,ok,1,0.9989991961,nmf,sklearn_nmf,platform_onset,analysis_window_end,3.0000000000,12.0000000000,30,120,90,nonstep,False,True,True,subject_mean_step_onset,True,nonstep,nonstep,left,R,young,True,replace_v3d_meta_prefilter,step_r,12.0000000000,9.0000000000
global_nonstep,S01,1.0000000000,3,S01_v1.0_T3,0,82,3.5589957237,ok,1,0.9989991961,nmf,sklearn_nmf,platform_onset,analysis_window_end,3.0000000000,12.0000000000,30,120,90,nonstep,False,True,True,subject_mean_step_onset,True,nonstep,nonstep,left,R,young,True,replace_v3d_meta_prefilter,step_r,12.0000000000,9.0000000000
global_nonstep,S01,1.0000000000,3,S01_v1.0_T3,0,83,3.5522563457,ok,1,0.9989991961,nmf,sklearn_nmf,platform_onset,analysis_window_end,3.0000000000,12.0000000000,30,120,90,nonstep,False,True,True,subject_mean_step_onset,True,nonstep,nonstep,left,R,young,True,replace_v3d_meta_prefilter,step_r,12.0000000000,9.0000000000
global_nonstep,S01,1.0000000000,3,S01_v1.0_T3,0,84,3.5455169678,ok,1,0.9989991961,nmf,sklearn_nmf,platform_onset,analysis_window_end,3.0000000000,12.0000000000,30,120,90,nonstep,False,True,True,subject_mean_step_onset,True,nonstep,nonstep,left,R,young,True,replace_v3d_meta_prefilter,step_r,12.0000000000,9.0000000000
global_nonstep,S01,1.0000000000,3,S01_v1.0_T3,0,85,3.5387775898,ok,1,0.9989991961,nmf,sklearn_nmf,platform_onset,analysis_window_end,3.0000000000,12.0000000000,30,120,90,nonstep,False,True,True,subject_mean_step_onset,True,nonstep,nonstep,left,R,young,True,replace_v3d_meta_prefilter,step_r,12.0000000000,9.0000000000
global_nonstep,S01,1.0000000000,3,S01_v1.0_T3,0,86,3.5320382118,ok,1,0.9989991961,nmf,sklearn_nmf,platform_onset,analysis_window_end,3.0000000000,12.0000000000,30,120,90,nonstep,False,True,True,subject_mean_step_onset,True,nonstep,nonstep,left,R,young,True,replace_v3d_meta_prefilter,step_r,12.0000000000,9.0000000000
global_nonstep,S01,1.0000000000,3,S01_v1.0_T3,0,87,3.5252988338,ok,1,0.9989991961,nmf,sklearn_nmf,platform_onset,analysis_window_end,3.0000000000,12.0000000000,30,120,90,nonstep,False,True,True,subject_mean_step_onset,True,nonstep,nonstep,left,R,young,True,replace_v3d_meta_prefilter,step_r,12.0000000000,9.0000000000
global_nonstep,S01,1.0000000000,3,S01_v1.0_T3,0,88,3.5185594559,ok,1,0.9989991961,nmf,sklearn_nmf,platform_onset,analysis_window_end,3.0000000000,12.0000000000,30,120,90,nonstep,False,True,True,subject_mean_step_onset,True,nonstep,nonstep,left,R,young,True,replace_v3d_meta_prefilter,step_r,12.0000000000,9.0000000000
global_nonstep,S01,1.0000000000,3,S01_v1.0_T3,0,89,3.5127713680,ok,1,0.9989991961,nmf,sklearn_nmf,platform_onset,analysis_window_end,3.0000000000,12.0000000000,30,120,90,nonstep,False,True,True,subject_mean_step_onset,True,nonstep,nonstep,left,R,young,True,replace_v3d_meta_prefilter,step_r,12.0000000000,9.0000000000
global_nonstep,S01,1.0000000000,3,S01_v1.0_T3,0,90,3.5069832802,ok,1,0.9989991961,nmf,sklearn_nmf,platform_onset,analysis_window_end,3.0000000000,12.0000000000,30,120,90,nonstep,False,True,True,subject_mean_step_onset,True,nonstep,nonstep,left,R,young,True,replace_v3d_meta_prefilter,step_r,12.0000000000,9.0000000000
global_nonstep,S01,1.0000000000,3,S01_v1.0_T3,0,91,3.5011951923,ok,1,0.9989991961,nmf,sklearn_nmf,platform_onset,analysis_window_end,3.0000000000,12.0000000000,30,120,90,nonstep,False,True,True,subject_mean_step_onset,True,nonstep,nonstep,left,R,young,True,replace_v3d_meta_prefilter,step_r,12.0000000000,9.0000000000
global_nonstep,S01,1.0000000000,3,S01_v1.0_T3,0,92,3.4954071045,ok,1,0.9989991961,nmf,sklearn_nmf,platform_onset,analysis_window_end,3.0000000000,12.0000000000,30,120,90,nonstep,False,True,True,subject_mean_step_onset,True,nonstep,nonstep,left,R,young,True,replace_v3d_meta_prefilter,step_r,12.0000000000,9.0000000000
global_nonstep,S01,1.0000000000,3,S01_v1.0_T3,0,93,3.4896190166,ok,1,0.9989991961,nmf,sklearn_nmf,platform_onset,analysis_window_end,3.0000000000,12.0000000000,30,120,90,nonstep,False,True,True,subject_mean_step_onset,True,nonstep,nonstep,left,R,young,True,replace_v3d_meta_prefilter,step_r,12.0000000000,9.0000000000
global_nonstep,S01,1.0000000000,3,S01_v1.0_T3,0,94,3.4838309288,ok,1,0.9989991961,nmf,sklearn_nmf,platform_onset,analysis_window_end,3.0000000000,12.0000000000,30,120,90,nonstep,False,True,True,subject_mean_step_onset,True,nonstep,nonstep,left,R,young,True,replace_v3d_meta_prefilter,step_r,12.0000000000,9.0000000000
global_nonstep,S01,1.0000000000,3,S01_v1.0_T3,0,95,3.4780428410,ok,1,0.9989991961,nmf,sklearn_nmf,platform_onset,analysis_window_end,3.0000000000,12.0000000000,30,120,90,nonstep,False,True,True,subject_mean_step_onset,True,nonstep,nonstep,left,R,young,True,replace_v3d_meta_prefilter,step_r,12.0000000000,9.0000000000
global_nonstep,S01,1.0000000000,3,S01_v1.0_T3,0,96,3.4722547531,ok,1,0.9989991961,nmf,sklearn_nmf,platform_onset,analysis_window_end,3.0000000000,12.0000000000,30,120,90,nonstep,False,True,True,subject_mean_step_onset,True,nonstep,nonstep,left,R,young,True,replace_v3d_meta_prefilter,step_r,12.0000000000,9.0000000000
global_nonstep,S01,1.0000000000,3,S01_v1.0_T3,0,97,3.4664666653,ok,1,0.9989991961,nmf,sklearn_nmf,platform_onset,analysis_window_end,3.0000000000,12.0000000000,30,120,90,nonstep,False,True,True,subject_mean_step_onset,True,nonstep,nonstep,left,R,young,True,replace_v3d_meta_prefilter,step_r,12.0000000000,9.0000000000
global_nonstep,S01,1.0000000000,3,S01_v1.0_T3,0,98,3.4606785774,ok,1,0.9989991961,nmf,sklearn_nmf,platform_onset,analysis_window_end,3.0000000000,12.0000000000,30,120,90,nonstep,False,True,True,subject_mean_step_onset,True,nonstep,nonstep,left,R,young,True,replace_v3d_meta_prefilter,step_r,12.0000000000,9.0000000000
global_nonstep,S01,1.0000000000,3,S01_v1.0_T3,0,99,3.4548904896,ok,1,0.9989991961,nmf,sklearn_nmf,platform_onset,analysis_window_end,3.0000000000,12.0000000000,30,120,90,nonstep,False,True,True,subject_mean_step_onset,True,nonstep,nonstep,left,R,young,True,replace_v3d_meta_prefilter,step_r,12.0000000000,9.0000000000
global_nonstep,S01,1.0000000000,4,S01_v1.0_T4,0,0,4.3699383736,ok,1,0.9991889994,nmf,sklearn_nmf,platform_onset,analysis_window_end,3.0000000000,12.0000000000,30,120,90,nonstep,False,True,True,subject_mean_step_onset,True,footlift,footlift,left,R,young,True,replace_v3d_meta_prefilter,step_r,12.0000000000,9.0000000000
global_nonstep,S01,1.0000000000,4,S01_v1.0_T4,0,1,4.3702144623,ok,1,0.9991889994,nmf,sklearn_nmf,platform_onset,analysis_window_end,3.0000000000,12.0000000000,30,120,90,nonstep,False,True,True,subject_mean_step_onset,True,footlift,footlift,left,R,young,True,replace_v3d_meta_prefilter,step_r,12.0000000000,9.0000000000
global_nonstep,S01,1.0000000000,4,S01_v1.0_T4,0,2,4.3704900742,ok,1,0.9991889994,nmf,sklearn_nmf,platform_onset,analysis_window_end,3.0000000000,12.0000000000,30,120,90,nonstep,False,True,True,subject_mean_step_onset,True,footlift,footlift,left,R,young,True,replace_v3d_meta_prefilter,step_r,12.0000000000,9.0000000000
global_nonstep,S01,1.0000000000,4,S01_v1.0_T4,0,3,4.3707661629,ok,1,0.9991889994,nmf,sklearn_nmf,platform_onset,analysis_window_end,3.0000000000,12.0000000000,30,120,90,nonstep,False,True,True,subject_mean_step_onset,True,footlift,footlift,left,R,young,True,replace_v3d_meta_prefilter,step_r,12.0000000000,9.0000000000
global_nonstep,S01,1.0000000000,4,S01_v1.0_T4,0,4,4.3710422516,ok,1,0.9991889994,nmf,sklearn_nmf,platform_onset,analysis_window_end,3.0000000000,12.0000000000,30,120,90,nonstep,False,True,True,subject_mean_step_onset,True,footlift,footlift,left,R,young,True,replace_v3d_meta_prefilter,step_r,12.0000000000,9.0000000000
global_nonstep,S01,1.0000000000,4,S01_v1.0_T4,0,5,4.3713183403,ok,1,0.9991889994,nmf,sklearn_nmf,platform_onset,analysis_window_end,3.0000000000,12.0000000000,30,120,90,nonstep,False,True,True,subject_mean_step_onset,True,footlift,footlift,left,R,young,True,replace_v3d_meta_prefilter,step_r,12.0000000000,9.0000000000
global_nonstep,S01,1.0000000000,4,S01_v1.0_T4,0,6,4.3715939522,ok,1,0.9991889994,nmf,sklearn_nmf,platform_onset,analysis_window_end,3.0000000000,12.0000000000,30,120,90,nonstep,False,True,True,subject_mean_step_onset,True,footlift,footlift,left,R,young,True,replace_v3d_meta_prefilter,step_r,12.0000000000,9.0000000000
global_nonstep,S01,1.0000000000,4,S01_v1.0_T4,0,7,4.3718700409,ok,1,0.9991889994,nmf,sklearn_nmf,platform_onset,analysis_window_end,3.0000000000,12.0000000000,30,120,90,nonstep,False,True,True,subject_mean_step_onset,True,footlift,footlift,left,R,young,True,replace_v3d_meta_prefilter,step_r,12.0000000000,9.0000000000
global_nonstep,S01,1.0000000000,4,S01_v1.0_T4,0,8,4.3721461296,ok,1,0.9991889994,nmf,sklearn_nmf,platform_onset,analysis_window_end,3.0000000000,12.0000000000,30,120,90,nonstep,False,True,True,subject_mean_step_onset,True,footlift,footlift,left,R,young,True,replace_v3d_meta_prefilter,step_r,12.0000000000,9.0000000000
global_nonstep,S01,1.0000000000,4,S01_v1.0_T4,0,9,4.3724222183,ok,1,0.9991889994,nmf,sklearn_nmf,platform_onset,analysis_window_end,3.0000000000,12.0000000000,30,120,90,nonstep,False,True,True,subject_mean_step_onset,True,footlift,footlift,left,R,young,True,replace_v3d_meta_prefilter,step_r,12.0000000000,9.0000000000
global_nonstep,S01,1.0000000000,4,S01_v1.0_T4,0,10,4.3726978302,ok,1,0.9991889994,nmf,sklearn_nmf,platform_onset,analysis_window_end,3.0000000000,12.0000000000,30,120,90,nonstep,False,True,True,subject_mean_step_onset,True,footlift,footlift,left,R,young,True,replace_v3d_meta_prefilter,step_r,12.0000000000,9.0000000000
global_nonstep,S01,1.0000000000,4,S01_v1.0_T4,0,11,4.3729739189,ok,1,0.9991889994,nmf,sklearn_nmf,platform_onset,analysis_window_end,3.0000000000,12.0000000000,30,120,90,nonstep,False,True,True,subject_mean_step_onset,True,footlift,footlift,left,R,young,True,replace_v3d_meta_prefilter,step_r,12.0000000000,9.0000000000
global_nonstep,S01,1.0000000000,4,S01_v1.0_T4,0,12,4.3712296486,ok,1,0.9991889994,nmf,sklearn_nmf,platform_onset,analysis_window_end,3.0000000000,12.0000000000,30,120,90,nonstep,False,True,True,subject_mean_step_onset,True,footlift,footlift,left,R,young,True,replace_v3d_meta_prefilter,step_r,12.0000000000,9.0000000000
global_nonstep,S01,1.0000000000,4,S01_v1.0_T4,0,13,4.3694853783,ok,1,0.9991889994,nmf,sklearn_nmf,platform_onset,analysis_window_end,3.0000000000,12.0000000000,30,120,90,nonstep,False,True,True,subject_mean_step_onset,True,footlift,footlift,left,R,young,True,replace_v3d_meta_prefilter,step_r,12.0000000000,9.0000000000
global_nonstep,S01,1.0000000000,4,S01_v1.0_T4,0,14,4.3677415848,ok,1,0.9991889994,nmf,sklearn_nmf,platform_onset,analysis_window_end,3.0000000000,12.0000000000,30,120,90,nonstep,False,True,True,subject_mean_step_onset,True,footlift,footlift,left,R,young,True,replace_v3d_meta_prefilter,step_r,12.0000000000,9.0000000000
global_nonstep,S01,1.0000000000,4,S01_v1.0_T4,0,15,4.3659973145,ok,1,0.9991889994,nmf,sklearn_nmf,platform_onset,analysis_window_end,3.0000000000,12.0000000000,30,120,90,nonstep,False,True,True,subject_mean_step_onset,True,footlift,footlift,left,R,young,True,replace_v3d_meta_prefilter,step_r,12.0000000000,9.0000000000
global_nonstep,S01,1.0000000000,4,S01_v1.0_T4,0,16,4.3642530441,ok,1,0.9991889994,nmf,sklearn_nmf,platform_onset,analysis_window_end,3.0000000000,12.0000000000,30,120,90,nonstep,False,True,True,subject_mean_step_onset,True,footlift,footlift,left,R,young,True,replace_v3d_meta_prefilter,step_r,12.0000000000,9.0000000000
global_nonstep,S01,1.0000000000,4,S01_v1.0_T4,0,17,4.3625087738,ok,1,0.9991889994,nmf,sklearn_nmf,platform_onset,analysis_window_end,3.0000000000,12.0000000000,30,120,90,nonstep,False,True,True,subject_mean_step_onset,True,footlift,footlift,left,R,young,True,replace_v3d_meta_prefilter,step_r,12.0000000000,9.0000000000
global_nonstep,S01,1.0000000000,4,S01_v1.0_T4,0,18,4.3607645035,ok,1,0.9991889994,nmf,sklearn_nmf,platform_onset,analysis_window_end,3.0000000000,12.0000000000,30,120,90,nonstep,False,True,True,subject_mean_step_onset,True,footlift,footlift,left,R,young,True,replace_v3d_meta_prefilter,step_r,12.0000000000,9.0000000000
global_nonstep,S01,1.0000000000,4,S01_v1.0_T4,0,19,4.3590202332,ok,1,0.9991889994,nmf,sklearn_nmf,platform_onset,analysis_window_end,3.0000000000,12.0000000000,30,120,90,nonstep,False,True,True,subject_mean_step_onset,True,footlift,footlift,left,R,young,True,replace_v3d_meta_prefilter,step_r,12.0000000000,9.0000000000
global_nonstep,S01,1.0000000000,4,S01_v1.0_T4,0,20,4.3572764397,ok,1,0.9991889994,nmf,sklearn_nmf,platform_onset,analysis_window_end,3.0000000000,12.0000000000,30,120,90,nonstep,False,True,True,subject_mean_step_onset,True,footlift,footlift,left,R,young,True,replace_v3d_meta_prefilter,step_r,12.0000000000,9.0000000000
global_nonstep,S01,1.0000000000,4,S01_v1.0_T4,0,21,4.3555321693,ok,1,0.9991889994,nmf,sklearn_nmf,platform_onset,analysis_window_end,3.0000000000,12.0000000000,30,120,90,nonstep,False,True,True,subject_mean_step_onset,True,footlift,footlift,left,R,young,True,replace_v3d_meta_prefilter,step_r,12.0000000000,9.0000000000
global_nonstep,S01,1.0000000000,4,S01_v1.0_T4,0,22,4.3537878990,ok,1,0.9991889994,nmf,sklearn_nmf,platform_onset,analysis_window_end,3.0000000000,12.0000000000,30,120,90,nonstep,False,True,True,subject_mean_step_onset,True,footlift,footlift,left,R,young,True,replace_v3d_meta_prefilter,step_r,12.0000000000,9.0000000000
global_nonstep,S01,1.0000000000,4,S01_v1.0_T4,0,23,4.3501787186,ok,1,0.9991889994,nmf,sklearn_nmf,platform_onset,analysis_window_end,3.0000000000,12.0000000000,30,120,90,nonstep,False,True,True,subject_mean_step_onset,True,footlift,footlift,left,R,young,True,replace_v3d_meta_prefilter,step_r,12.0000000000,9.0000000000
global_nonstep,S01,1.0000000000,4,S01_v1.0_T4,0,24,4.3465695381,ok,1,0.9991889994,nmf,sklearn_nmf,platform_onset,analysis_window_end,3.0000000000,12.0000000000,30,120,90,nonstep,False,True,True,subject_mean_step_onset,True,footlift,footlift,left,R,young,True,replace_v3d_meta_prefilter,step_r,12.0000000000,9.0000000000
global_nonstep,S01,1.0000000000,4,S01_v1.0_T4,0,25,4.3429598808,ok,1,0.9991889994,nmf,sklearn_nmf,platform_onset,analysis_window_end,3.0000000000,12.0000000000,30,120,90,nonstep,False,True,True,subject_mean_step_onset,True,footlift,footlift,left,R,young,True,replace_v3d_meta_prefilter,step_r,12.0000000000,9.0000000000
global_nonstep,S01,1.0000000000,4,S01_v1.0_T4,0,26,4.3393507004,ok,1,0.9991889994,nmf,sklearn_nmf,platform_onset,analysis_window_end,3.0000000000,12.0000000000,30,120,90,nonstep,False,True,True,subject_mean_step_onset,True,footlift,footlift,left,R,young,True,replace_v3d_meta_prefilter,step_r,12.0000000000,9.0000000000
global_nonstep,S01,1.0000000000,4,S01_v1.0_T4,0,27,4.3357415199,ok,1,0.9991889994,nmf,sklearn_nmf,platform_onset,analysis_window_end,3.0000000000,12.0000000000,30,120,90,nonstep,False,True,True,subject_mean_step_onset,True,footlift,footlift,left,R,young,True,replace_v3d_meta_prefilter,step_r,12.0000000000,9.0000000000
global_nonstep,S01,1.0000000000,4,S01_v1.0_T4,0,28,4.3321323395,ok,1,0.9991889994,nmf,sklearn_nmf,platform_onset,analysis_window_end,3.0000000000,12.0000000000,30,120,90,nonstep,False,True,True,subject_mean_step_onset,True,footlift,footlift,left,R,young,True,replace_v3d_meta_prefilter,step_r,12.0000000000,9.0000000000
global_nonstep,S01,1.0000000000,4,S01_v1.0_T4,0,29,4.3285231590,ok,1,0.9991889994,nmf,sklearn_nmf,platform_onset,analysis_window_end,3.0000000000,12.0000000000,30,120,90,nonstep,False,True,True,subject_mean_step_onset,True,footlift,footlift,left,R,young,True,replace_v3d_meta_prefilter,step_r,12.0000000000,9.0000000000
global_nonstep,S01,1.0000000000,4,S01_v1.0_T4,0,30,4.3249139786,ok,1,0.9991889994,nmf,sklearn_nmf,platform_onset,analysis_window_end,3.0000000000,12.0000000000,30,120,90,nonstep,False,True,True,subject_mean_step_onset,True,footlift,footlift,left,R,young,True,replace_v3d_meta_prefilter,step_r,12.0000000000,9.0000000000
global_nonstep,S01,1.0000000000,4,S01_v1.0_T4,0,31,4.3213043213,ok,1,0.9991889994,nmf,sklearn_nmf,platform_onset,analysis_window_end,3.0000000000,12.0000000000,30,120,90,nonstep,False,True,True,subject_mean_step_onset,True,footlift,footlift,left,R,young,True,replace_v3d_meta_prefilter,step_r,12.0000000000,9.0000000000
global_nonstep,S01,1.0000000000,4,S01_v1.0_T4,0,32,4.3176951408,ok,1,0.9991889994,nmf,sklearn_nmf,platform_onset,analysis_window_end,3.0000000000,12.0000000000,30,120,90,nonstep,False,True,True,subject_mean_step_onset,True,footlift,footlift,left,R,young,True,replace_v3d_meta_prefilter,step_r,12.0000000000,9.0000000000
global_nonstep,S01,1.0000000000,4,S01_v1.0_T4,0,33,4.3140859604,ok,1,0.9991889994,nmf,sklearn_nmf,platform_onset,analysis_window_end,3.0000000000,12.0000000000,30,120,90,nonstep,False,True,True,subject_mean_step_onset,True,footlift,footlift,left,R,young,True,replace_v3d_meta_prefilter,step_r,12.0000000000,9.0000000000
global_nonstep,S01,1.0000000000,4,S01_v1.0_T4,0,34,4.3089046478,ok,1,0.9991889994,nmf,sklearn_nmf,platform_onset,analysis_window_end,3.0000000000,12.0000000000,30,120,90,nonstep,False,True,True,subject_mean_step_onset,True,footlift,footlift,left,R,young,True,replace_v3d_meta_prefilter,step_r,12.0000000000,9.0000000000
global_nonstep,S01,1.0000000000,4,S01_v1.0_T4,0,35,4.3037233353,ok,1,0.9991889994,nmf,sklearn_nmf,platform_onset,analysis_window_end,3.0000000000,12.0000000000,30,120,90,nonstep,False,True,True,subject_mean_step_onset,True,footlift,footlift,left,R,young,True,replace_v3d_meta_prefilter,step_r,12.0000000000,9.0000000000
global_nonstep,S01,1.0000000000,4,S01_v1.0_T4,0,36,4.2985420227,ok,1,0.9991889994,nmf,sklearn_nmf,platform_onset,analysis_window_end,3.0000000000,12.0000000000,30,120,90,nonstep,False,True,True,subject_mean_step_onset,True,footlift,footlift,left,R,young,True,replace_v3d_meta_prefilter,step_r,12.0000000000,9.0000000000
global_nonstep,S01,1.0000000000,4,S01_v1.0_T4,0,37,4.2933607101,ok,1,0.9991889994,nmf,sklearn_nmf,platform_onset,analysis_window_end,3.0000000000,12.0000000000,30,120,90,nonstep,False,True,True,subject_mean_step_onset,True,footlift,footlift,left,R,young,True,replace_v3d_meta_prefilter,step_r,12.0000000000,9.0000000000
global_nonstep,S01,1.0000000000,4,S01_v1.0_T4,0,38,4.2881793976,ok,1,0.9991889994,nmf,sklearn_nmf,platform_onset,analysis_window_end,3.0000000000,12.0000000000,30,120,90,nonstep,False,True,True,subject_mean_step_onset,True,footlift,footlift,left,R,young,True,replace_v3d_meta_prefilter,step_r,12.0000000000,9.0000000000
global_nonstep,S01,1.0000000000,4,S01_v1.0_T4,0,39,4.2829985619,ok,1,0.9991889994,nmf,sklearn_nmf,platform_onset,analysis_window_end,3.0000000000,12.0000000000,30,120,90,nonstep,False,True,True,subject_mean_step_onset,True,footlift,footlift,left,R,young,True,replace_v3d_meta_prefilter,step_r,12.0000000000,9.0000000000
global_nonstep,S01,1.0000000000,4,S01_v1.0_T4,0,40,4.2778172493,ok,1,0.9991889994,nmf,sklearn_nmf,platform_onset,analysis_window_end,3.0000000000,12.0000000000,30,120,90,nonstep,False,True,True,subject_mean_step_onset,True,footlift,footlift,left,R,young,True,replace_v3d_meta_prefilter,step_r,12.0000000000,9.0000000000
global_nonstep,S01,1.0000000000,4,S01_v1.0_T4,0,41,4.2726359367,ok,1,0.9991889994,nmf,sklearn_nmf,platform_onset,analysis_window_end,3.0000000000,12.0000000000,30,120,90,nonstep,False,True,True,subject_mean_step_onset,True,footlift,footlift,left,R,young,True,replace_v3d_meta_prefilter,step_r,12.0000000000,9.0000000000
global_nonstep,S01,1.0000000000,4,S01_v1.0_T4,0,42,4.2674546242,ok,1,0.9991889994,nmf,sklearn_nmf,platform_onset,analysis_window_end,3.0000000000,12.0000000000,30,120,90,nonstep,False,True,True,subject_mean_step_onset,True,footlift,footlift,left,R,young,True,replace_v3d_meta_prefilter,step_r,12.0000000000,9.0000000000
global_nonstep,S01,1.0000000000,4,S01_v1.0_T4,0,43,4.2622733116,ok,1,0.9991889994,nmf,sklearn_nmf,platform_onset,analysis_window_end,3.0000000000,12.0000000000,30,120,90,nonstep,False,True,True,subject_mean_step_onset,True,footlift,footlift,left,R,young,True,replace_v3d_meta_prefilter,step_r,12.0000000000,9.0000000000
global_nonstep,S01,1.0000000000,4,S01_v1.0_T4,0,44,4.2570919991,ok,1,0.9991889994,nmf,sklearn_nmf,platform_onset,analysis_window_end,3.0000000000,12.0000000000,30,120,90,nonstep,False,True,True,subject_mean_step_onset,True,footlift,footlift,left,R,young,True,replace_v3d_meta_prefilter,step_r,12.0000000000,9.0000000000
global_nonstep,S01,1.0000000000,4,S01_v1.0_T4,0,45,4.2507486343,ok,1,0.9991889994,nmf,sklearn_nmf,platform_onset,analysis_window_end,3.0000000000,12.0000000000,30,120,90,nonstep,False,True,True,subject_mean_step_onset,True,footlift,footlift,left,R,young,True,replace_v3d_meta_prefilter,step_r,12.0000000000,9.0000000000
global_nonstep,S01,1.0000000000,4,S01_v1.0_T4,0,46,4.2444052696,ok,1,0.9991889994,nmf,sklearn_nmf,platform_onset,analysis_window_end,3.0000000000,12.0000000000,30,120,90,nonstep,False,True,True,subject_mean_step_onset,True,footlift,footlift,left,R,young,True,replace_v3d_meta_prefilter,step_r,12.0000000000,9.0000000000
global_nonstep,S01,1.0000000000,4,S01_v1.0_T4,0,47,4.2380614281,ok,1,0.9991889994,nmf,sklearn_nmf,platform_onset,analysis_window_end,3.0000000000,12.0000000000,30,120,90,nonstep,False,True,True,subject_mean_step_onset,True,footlift,footlift,left,R,young,True,replace_v3d_meta_prefilter,step_r,12.0000000000,9.0000000000
global_nonstep,S01,1.0000000000,4,S01_v1.0_T4,0,48,4.2317180634,ok,1,0.9991889994,nmf,sklearn_nmf,platform_onset,analysis_window_end,3.0000000000,12.0000000000,30,120,90,nonstep,False,True,True,subject_mean_step_onset,True,footlift,footlift,left,R,young,True,replace_v3d_meta_prefilter,step_r,12.0000000000,9.0000000000
global_nonstep,S01,1.0000000000,4,S01_v1.0_T4,0,49,4.2253746986,ok,1,0.9991889994,nmf,sklearn_nmf,platform_onset,analysis_window_end,3.0000000000,12.0000000000,30,120,90,nonstep,False,True,True,subject_mean_step_onset,True,footlift,footlift,left,R,young,True,replace_v3d_meta_prefilter,step_r,12.0000000000,9.0000000000
global_nonstep,S01,1.0000000000,4,S01_v1.0_T4,0,50,4.2190313339,ok,1,0.9991889994,nmf,sklearn_nmf,platform_onset,analysis_window_end,3.0000000000,12.0000000000,30,120,90,nonstep,False,True,True,subject_mean_step_onset,True,footlift,footlift,left,R,young,True,replace_v3d_meta_prefilter,step_r,12.0000000000,9.0000000000
global_nonstep,S01,1.0000000000,4,S01_v1.0_T4,0,51,4.2126879692,ok,1,0.9991889994,nmf,sklearn_nmf,platform_onset,analysis_window_end,3.0000000000,12.0000000000,30,120,90,nonstep,False,True,True,subject_mean_step_onset,True,footlift,footlift,left,R,young,True,replace_v3d_meta_prefilter,step_r,12.0000000000,9.0000000000
global_nonstep,S01,1.0000000000,4,S01_v1.0_T4,0,52,4.2063446045,ok,1,0.9991889994,nmf,sklearn_nmf,platform_onset,analysis_window_end,3.0000000000,12.0000000000,30,120,90,nonstep,False,True,True,subject_mean_step_onset,True,footlift,footlift,left,R,young,True,replace_v3d_meta_prefilter,step_r,12.0000000000,9.0000000000
global_nonstep,S01,1.0000000000,4,S01_v1.0_T4,0,53,4.2000007629,ok,1,0.9991889994,nmf,sklearn_nmf,platform_onset,analysis_window_end,3.0000000000,12.0000000000,30,120,90,nonstep,False,True,True,subject_mean_step_onset,True,footlift,footlift,left,R,young,True,replace_v3d_meta_prefilter,step_r,12.0000000000,9.0000000000
global_nonstep,S01,1.0000000000,4,S01_v1.0_T4,0,54,4.1936573982,ok,1,0.9991889994,nmf,sklearn_nmf,platform_onset,analysis_window_end,3.0000000000,12.0000000000,30,120,90,nonstep,False,True,True,subject_mean_step_onset,True,footlift,footlift,left,R,young,True,replace_v3d_meta_prefilter,step_r,12.0000000000,9.0000000000
global_nonstep,S01,1.0000000000,4,S01_v1.0_T4,0,55,4.1873140335,ok,1,0.9991889994,nmf,sklearn_nmf,platform_onset,analysis_window_end,3.0000000000,12.0000000000,30,120,90,nonstep,False,True,True,subject_mean_step_onset,True,footlift,footlift,left,R,young,True,replace_v3d_meta_prefilter,step_r,12.0000000000,9.0000000000
global_nonstep,S01,1.0000000000,4,S01_v1.0_T4,0,56,4.1803045273,ok,1,0.9991889994,nmf,sklearn_nmf,platform_onset,analysis_window_end,3.0000000000,12.0000000000,30,120,90,nonstep,False,True,True,subject_mean_step_onset,True,footlift,footlift,left,R,young,True,replace_v3d_meta_prefilter,step_r,12.0000000000,9.0000000000
global_nonstep,S01,1.0000000000,4,S01_v1.0_T4,0,57,4.1732945442,ok,1,0.9991889994,nmf,sklearn_nmf,platform_onset,analysis_window_end,3.0000000000,12.0000000000,30,120,90,nonstep,False,True,True,subject_mean_step_onset,True,footlift,footlift,left,R,young,True,replace_v3d_meta_prefilter,step_r,12.0000000000,9.0000000000
global_nonstep,S01,1.0000000000,4,S01_v1.0_T4,0,58,4.1662850380,ok,1,0.9991889994,nmf,sklearn_nmf,platform_onset,analysis_window_end,3.0000000000,12.0000000000,30,120,90,nonstep,False,True,True,subject_mean_step_onset,True,footlift,footlift,left,R,young,True,replace_v3d_meta_prefilter,step_r,12.0000000000,9.0000000000
global_nonstep,S01,1.0000000000,4,S01_v1.0_T4,0,59,4.1592755318,ok,1,0.9991889994,nmf,sklearn_nmf,platform_onset,analysis_window_end,3.0000000000,12.0000000000,30,120,90,nonstep,False,True,True,subject_mean_step_onset,True,footlift,footlift,left,R,young,True,replace_v3d_meta_prefilter,step_r,12.0000000000,9.0000000000
global_nonstep,S01,1.0000000000,4,S01_v1.0_T4,0,60,4.1522655487,ok,1,0.9991889994,nmf,sklearn_nmf,platform_onset,analysis_window_end,3.0000000000,12.0000000000,30,120,90,nonstep,False,True,True,subject_mean_step_onset,True,footlift,footlift,left,R,young,True,replace_v3d_meta_prefilter,step_r,12.0000000000,9.0000000000
global_nonstep,S01,1.0000000000,4,S01_v1.0_T4,0,61,4.1452560425,ok,1,0.9991889994,nmf,sklearn_nmf,platform_onset,analysis_window_end,3.0000000000,12.0000000000,30,120,90,nonstep,False,True,True,subject_mean_step_onset,True,footlift,footlift,left,R,young,True,replace_v3d_meta_prefilter,step_r,12.0000000000,9.0000000000
global_nonstep,S01,1.0000000000,4,S01_v1.0_T4,0,62,4.1382460594,ok,1,0.9991889994,nmf,sklearn_nmf,platform_onset,analysis_window_end,3.0000000000,12.0000000000,30,120,90,nonstep,False,True,True,subject_mean_step_onset,True,footlift,footlift,left,R,young,True,replace_v3d_meta_prefilter,step_r,12.0000000000,9.0000000000
global_nonstep,S01,1.0000000000,4,S01_v1.0_T4,0,63,4.1312365532,ok,1,0.9991889994,nmf,sklearn_nmf,platform_onset,analysis_window_end,3.0000000000,12.0000000000,30,120,90,nonstep,False,True,True,subject_mean_step_onset,True,footlift,footlift,left,R,young,True,replace_v3d_meta_prefilter,step_r,12.0000000000,9.0000000000
global_nonstep,S01,1.0000000000,4,S01_v1.0_T4,0,64,4.1242270470,ok,1,0.9991889994,nmf,sklearn_nmf,platform_onset,analysis_window_end,3.0000000000,12.0000000000,30,120,90,nonstep,False,True,True,subject_mean_step_onset,True,footlift,footlift,left,R,young,True,replace_v3d_meta_prefilter,step_r,12.0000000000,9.0000000000
global_nonstep,S01,1.0000000000,4,S01_v1.0_T4,0,65,4.1172170639,ok,1,0.9991889994,nmf,sklearn_nmf,platform_onset,analysis_window_end,3.0000000000,12.0000000000,30,120,90,nonstep,False,True,True,subject_mean_step_onset,True,footlift,footlift,left,R,young,True,replace_v3d_meta_prefilter,step_r,12.0000000000,9.0000000000
global_nonstep,S01,1.0000000000,4,S01_v1.0_T4,0,66,4.1102075577,ok,1,0.9991889994,nmf,sklearn_nmf,platform_onset,analysis_window_end,3.0000000000,12.0000000000,30,120,90,nonstep,False,True,True,subject_mean_step_onset,True,footlift,footlift,left,R,young,True,replace_v3d_meta_prefilter,step_r,12.0000000000,9.0000000000
global_nonstep,S01,1.0000000000,4,S01_v1.0_T4,0,67,4.1030774117,ok,1,0.9991889994,nmf,sklearn_nmf,platform_onset,analysis_window_end,3.0000000000,12.0000000000,30,120,90,nonstep,False,True,True,subject_mean_step_onset,True,footlift,footlift,left,R,young,True,replace_v3d_meta_prefilter,step_r,12.0000000000,9.0000000000
global_nonstep,S01,1.0000000000,4,S01_v1.0_T4,0,68,4.0959467888,ok,1,0.9991889994,nmf,sklearn_nmf,platform_onset,analysis_window_end,3.0000000000,12.0000000000,30,120,90,nonstep,False,True,True,subject_mean_step_onset,True,footlift,footlift,left,R,young,True,replace_v3d_meta_prefilter,step_r,12.0000000000,9.0000000000
global_nonstep,S01,1.0000000000,4,S01_v1.0_T4,0,69,4.0888166428,ok,1,0.9991889994,nmf,sklearn_nmf,platform_onset,analysis_window_end,3.0000000000,12.0000000000,30,120,90,nonstep,False,True,True,subject_mean_step_onset,True,footlift,footlift,left,R,young,True,replace_v3d_meta_prefilter,step_r,12.0000000000,9.0000000000
global_nonstep,S01,1.0000000000,4,S01_v1.0_T4,0,70,4.0816860199,ok,1,0.9991889994,nmf,sklearn_nmf,platform_onset,analysis_window_end,3.0000000000,12.0000000000,30,120,90,nonstep,False,True,True,subject_mean_step_onset,True,footlift,footlift,left,R,young,True,replace_v3d_meta_prefilter,step_r,12.0000000000,9.0000000000
global_nonstep,S01,1.0000000000,4,S01_v1.0_T4,0,71,4.0745558739,ok,1,0.9991889994,nmf,sklearn_nmf,platform_onset,analysis_window_end,3.0000000000,12.0000000000,30,120,90,nonstep,False,True,True,subject_mean_step_onset,True,footlift,footlift,left,R,young,True,replace_v3d_meta_prefilter,step_r,12.0000000000,9.0000000000
global_nonstep,S01,1.0000000000,4,S01_v1.0_T4,0,72,4.0674252510,ok,1,0.9991889994,nmf,sklearn_nmf,platform_onset,analysis_window_end,3.0000000000,12.0000000000,30,120,90,nonstep,False,True,True,subject_mean_step_onset,True,footlift,footlift,left,R,young,True,replace_v3d_meta_prefilter,step_r,12.0000000000,9.0000000000
global_nonstep,S01,1.0000000000,4,S01_v1.0_T4,0,73,4.0602951050,ok,1,0.9991889994,nmf,sklearn_nmf,platform_onset,analysis_window_end,3.0000000000,12.0000000000,30,120,90,nonstep,False,True,True,subject_mean_step_onset,True,footlift,footlift,left,R,young,True,replace_v3d_meta_prefilter,step_r,12.0000000000,9.0000000000
global_nonstep,S01,1.0000000000,4,S01_v1.0_T4,0,74,4.0531644821,ok,1,0.9991889994,nmf,sklearn_nmf,platform_onset,analysis_window_end,3.0000000000,12.0000000000,30,120,90,nonstep,False,True,True,subject_mean_step_onset,True,footlift,footlift,left,R,young,True,replace_v3d_meta_prefilter,step_r,12.0000000000,9.0000000000
global_nonstep,S01,1.0000000000,4,S01_v1.0_T4,0,75,4.0460343361,ok,1,0.9991889994,nmf,sklearn_nmf,platform_onset,analysis_window_end,3.0000000000,12.0000000000,30,120,90,nonstep,False,True,True,subject_mean_step_onset,True,footlift,footlift,left,R,young,True,replace_v3d_meta_prefilter,step_r,12.0000000000,9.0000000000
global_nonstep,S01,1.0000000000,4,S01_v1.0_T4,0,76,4.0389037132,ok,1,0.9991889994,nmf,sklearn_nmf,platform_onset,analysis_window_end,3.0000000000,12.0000000000,30,120,90,nonstep,False,True,True,subject_mean_step_onset,True,footlift,footlift,left,R,young,True,replace_v3d_meta_prefilter,step_r,12.0000000000,9.0000000000
global_nonstep,S01,1.0000000000,4,S01_v1.0_T4,0,77,4.0317735672,ok,1,0.9991889994,nmf,sklearn_nmf,platform_onset,analysis_window_end,3.0000000000,12.0000000000,30,120,90,nonstep,False,True,True,subject_mean_step_onset,True,footlift,footlift,left,R,young,True,replace_v3d_meta_prefilter,step_r,12.0000000000,9.0000000000
global_nonstep,S01,1.0000000000,4,S01_v1.0_T4,0,78,4.0250768661,ok,1,0.9991889994,nmf,sklearn_nmf,platform_onset,analysis_window_end,3.0000000000,12.0000000000,30,120,90,nonstep,False,True,True,subject_mean_step_onset,True,footlift,footlift,left,R,young,True,replace_v3d_meta_prefilter,step_r,12.0000000000,9.0000000000
global_nonstep,S01,1.0000000000,4,S01_v1.0_T4,0,79,4.0183796883,ok,1,0.9991889994,nmf,sklearn_nmf,platform_onset,analysis_window_end,3.0000000000,12.0000000000,30,120,90,nonstep,False,True,True,subject_mean_step_onset,True,footlift,footlift,left,R,young,True,replace_v3d_meta_prefilter,step_r,12.0000000000,9.0000000000
global_nonstep,S01,1.0000000000,4,S01_v1.0_T4,0,80,4.0116829872,ok,1,0.9991889994,nmf,sklearn_nmf,platform_onset,analysis_window_end,3.0000000000,12.0000000000,30,120,90,nonstep,False,True,True,subject_mean_step_onset,True,footlift,footlift,left,R,young,True,replace_v3d_meta_prefilter,step_r,12.0000000000,9.0000000000
global_nonstep,S01,1.0000000000,4,S01_v1.0_T4,0,81,4.0049858093,ok,1,0.9991889994,nmf,sklearn_nmf,platform_onset,analysis_window_end,3.0000000000,12.0000000000,30,120,90,nonstep,False,True,True,subject_mean_step_onset,True,footlift,footlift,left,R,young,True,replace_v3d_meta_prefilter,step_r,12.0000000000,9.0000000000
global_nonstep,S01,1.0000000000,4,S01_v1.0_T4,0,82,3.9982891083,ok,1,0.9991889994,nmf,sklearn_nmf,platform_onset,analysis_window_end,3.0000000000,12.0000000000,30,120,90,nonstep,False,True,True,subject_mean_step_onset,True,footlift,footlift,left,R,young,True,replace_v3d_meta_prefilter,step_r,12.0000000000,9.0000000000
global_nonstep,S01,1.0000000000,4,S01_v1.0_T4,0,83,3.9915921688,ok,1,0.9991889994,nmf,sklearn_nmf,platform_onset,analysis_window_end,3.0000000000,12.0000000000,30,120,90,nonstep,False,True,True,subject_mean_step_onset,True,footlift,footlift,left,R,young,True,replace_v3d_meta_prefilter,step_r,12.0000000000,9.0000000000
global_nonstep,S01,1.0000000000,4,S01_v1.0_T4,0,84,3.9848952293,ok,1,0.9991889994,nmf,sklearn_nmf,platform_onset,analysis_window_end,3.0000000000,12.0000000000,30,120,90,nonstep,False,True,True,subject_mean_step_onset,True,footlift,footlift,left,R,young,True,replace_v3d_meta_prefilter,step_r,12.0000000000,9.0000000000
global_nonstep,S01,1.0000000000,4,S01_v1.0_T4,0,85,3.9781982899,ok,1,0.9991889994,nmf,sklearn_nmf,platform_onset,analysis_window_end,3.0000000000,12.0000000000,30,120,90,nonstep,False,True,True,subject_mean_step_onset,True,footlift,footlift,left,R,young,True,replace_v3d_meta_prefilter,step_r,12.0000000000,9.0000000000
global_nonstep,S01,1.0000000000,4,S01_v1.0_T4,0,86,3.9715015888,ok,1,0.9991889994,nmf,sklearn_nmf,platform_onset,analysis_window_end,3.0000000000,12.0000000000,30,120,90,nonstep,False,True,True,subject_mean_step_onset,True,footlift,footlift,left,R,young,True,replace_v3d_meta_prefilter,step_r,12.0000000000,9.0000000000
global_nonstep,S01,1.0000000000,4,S01_v1.0_T4,0,87,3.9648046494,ok,1,0.9991889994,nmf,sklearn_nmf,platform_onset,analysis_window_end,3.0000000000,12.0000000000,30,120,90,nonstep,False,True,True,subject_mean_step_onset,True,footlift,footlift,left,R,young,True,replace_v3d_meta_prefilter,step_r,12.0000000000,9.0000000000
global_nonstep,S01,1.0000000000,4,S01_v1.0_T4,0,88,3.9581077099,ok,1,0.9991889994,nmf,sklearn_nmf,platform_onset,analysis_window_end,3.0000000000,12.0000000000,30,120,90,nonstep,False,True,True,subject_mean_step_onset,True,footlift,footlift,left,R,young,True,replace_v3d_meta_prefilter,step_r,12.0000000000,9.0000000000
global_nonstep,S01,1.0000000000,4,S01_v1.0_T4,0,89,3.9523665905,ok,1,0.9991889994,nmf,sklearn_nmf,platform_onset,analysis_window_end,3.0000000000,12.0000000000,30,120,90,nonstep,False,True,True,subject_mean_step_onset,True,footlift,footlift,left,R,young,True,replace_v3d_meta_prefilter,step_r,12.0000000000,9.0000000000
global_nonstep,S01,1.0000000000,4,S01_v1.0_T4,0,90,3.9466257095,ok,1,0.9991889994,nmf,sklearn_nmf,platform_onset,analysis_window_end,3.0000000000,12.0000000000,30,120,90,nonstep,False,True,True,subject_mean_step_onset,True,footlift,footlift,left,R,young,True,replace_v3d_meta_prefilter,step_r,12.0000000000,9.0000000000
global_nonstep,S01,1.0000000000,4,S01_v1.0_T4,0,91,3.9408845901,ok,1,0.9991889994,nmf,sklearn_nmf,platform_onset,analysis_window_end,3.0000000000,12.0000000000,30,120,90,nonstep,False,True,True,subject_mean_step_onset,True,footlift,footlift,left,R,young,True,replace_v3d_meta_prefilter,step_r,12.0000000000,9.0000000000
global_nonstep,S01,1.0000000000,4,S01_v1.0_T4,0,92,3.9351434708,ok,1,0.9991889994,nmf,sklearn_nmf,platform_onset,analysis_window_end,3.0000000000,12.0000000000,30,120,90,nonstep,False,True,True,subject_mean_step_onset,True,footlift,footlift,left,R,young,True,replace_v3d_meta_prefilter,step_r,12.0000000000,9.0000000000
global_nonstep,S01,1.0000000000,4,S01_v1.0_T4,0,93,3.9294023514,ok,1,0.9991889994,nmf,sklearn_nmf,platform_onset,analysis_window_end,3.0000000000,12.0000000000,30,120,90,nonstep,False,True,True,subject_mean_step_onset,True,footlift,footlift,left,R,young,True,replace_v3d_meta_prefilter,step_r,12.0000000000,9.0000000000
global_nonstep,S01,1.0000000000,4,S01_v1.0_T4,0,94,3.9236614704,ok,1,0.9991889994,nmf,sklearn_nmf,platform_onset,analysis_window_end,3.0000000000,12.0000000000,30,120,90,nonstep,False,True,True,subject_mean_step_onset,True,footlift,footlift,left,R,young,True,replace_v3d_meta_prefilter,step_r,12.0000000000,9.0000000000
global_nonstep,S01,1.0000000000,4,S01_v1.0_T4,0,95,3.9179203510,ok,1,0.9991889994,nmf,sklearn_nmf,platform_onset,analysis_window_end,3.0000000000,12.0000000000,30,120,90,nonstep,False,True,True,subject_mean_step_onset,True,footlift,footlift,left,R,young,True,replace_v3d_meta_prefilter,step_r,12.0000000000,9.0000000000
global_nonstep,S01,1.0000000000,4,S01_v1.0_T4,0,96,3.9121792316,ok,1,0.9991889994,nmf,sklearn_nmf,platform_onset,analysis_window_end,3.0000000000,12.0000000000,30,120,90,nonstep,False,True,True,subject_mean_step_onset,True,footlift,footlift,left,R,young,True,replace_v3d_meta_prefilter,step_r,12.0000000000,9.0000000000
global_nonstep,S01,1.0000000000,4,S01_v1.0_T4,0,97,3.9064381123,ok,1,0.9991889994,nmf,sklearn_nmf,platform_onset,analysis_window_end,3.0000000000,12.0000000000,30,120,90,nonstep,False,True,True,subject_mean_step_onset,True,footlift,footlift,left,R,young,True,replace_v3d_meta_prefilter,step_r,12.0000000000,9.0000000000
global_nonstep,S01,1.0000000000,4,S01_v1.0_T4,0,98,3.9006972313,ok,1,0.9991889994,nmf,sklearn_nmf,platform_onset,analysis_window_end,3.0000000000,12.0000000000,30,120,90,nonstep,False,True,True,subject_mean_step_onset,True,footlift,footlift,left,R,young,True,replace_v3d_meta_prefilter,step_r,12.0000000000,9.0000000000
global_nonstep,S01,1.0000000000,4,S01_v1.0_T4,0,99,3.8949561119,ok,1,0.9991889994,nmf,sklearn_nmf,platform_onset,analysis_window_end,3.0000000000,12.0000000000,30,120,90,nonstep,False,True,True,subject_mean_step_onset,True,footlift,footlift,left,R,young,True,replace_v3d_meta_prefilter,step_r,12.0000000000,9.0000000000
global_nonstep,S02,1.0000000000,3,S02_v1.0_T3,0,0,7.1262698174,ok,1,0.9996937175,nmf,sklearn_nmf,platform_onset,analysis_window_end,3.0000000000,12.0000000000,30,120,90,nonstep,False,True,True,subject_mean_step_onset,True,nonstep,nonstep,right,L,young,True,replace_v3d_meta_prefilter,step_l,12.0000000000,9.0000000000
global_nonstep,S02,1.0000000000,3,S02_v1.0_T3,0,1,7.1264400482,ok,1,0.9996937175,nmf,sklearn_nmf,platform_onset,analysis_window_end,3.0000000000,12.0000000000,30,120,90,nonstep,False,True,True,subject_mean_step_onset,True,nonstep,nonstep,right,L,young,True,replace_v3d_meta_prefilter,step_l,12.0000000000,9.0000000000
global_nonstep,S02,1.0000000000,3,S02_v1.0_T3,0,2,7.1266098022,ok,1,0.9996937175,nmf,sklearn_nmf,platform_onset,analysis_window_end,3.0000000000,12.0000000000,30,120,90,nonstep,False,True,True,subject_mean_step_onset,True,nonstep,nonstep,right,L,young,True,replace_v3d_meta_prefilter,step_l,12.0000000000,9.0000000000
global_nonstep,S02,1.0000000000,3,S02_v1.0_T3,0,3,7.1267800331,ok,1,0.9996937175,nmf,sklearn_nmf,platform_onset,analysis_window_end,3.0000000000,12.0000000000,30,120,90,nonstep,False,True,True,subject_mean_step_onset,True,nonstep,nonstep,right,L,young,True,replace_v3d_meta_prefilter,step_l,12.0000000000,9.0000000000
global_nonstep,S02,1.0000000000,3,S02_v1.0_T3,0,4,7.1269502640,ok,1,0.9996937175,nmf,sklearn_nmf,platform_onset,analysis_window_end,3.0000000000,12.0000000000,30,120,90,nonstep,False,True,True,subject_mean_step_onset,True,nonstep,nonstep,right,L,young,True,replace_v3d_meta_prefilter,step_l,12.0000000000,9.0000000000
global_nonstep,S02,1.0000000000,3,S02_v1.0_T3,0,5,7.1271200180,ok,1,0.9996937175,nmf,sklearn_nmf,platform_onset,analysis_window_end,3.0000000000,12.0000000000,30,120,90,nonstep,False,True,True,subject_mean_step_onset,True,nonstep,nonstep,right,L,young,True,replace_v3d_meta_prefilter,step_l,12.0000000000,9.0000000000
global_nonstep,S02,1.0000000000,3,S02_v1.0_T3,0,6,7.1272902489,ok,1,0.9996937175,nmf,sklearn_nmf,platform_onset,analysis_window_end,3.0000000000,12.0000000000,30,120,90,nonstep,False,True,True,subject_mean_step_onset,True,nonstep,nonstep,right,L,young,True,replace_v3d_meta_prefilter,step_l,12.0000000000,9.0000000000
global_nonstep,S02,1.0000000000,3,S02_v1.0_T3,0,7,7.1274600029,ok,1,0.9996937175,nmf,sklearn_nmf,platform_onset,analysis_window_end,3.0000000000,12.0000000000,30,120,90,nonstep,False,True,True,subject_mean_step_onset,True,nonstep,nonstep,right,L,young,True,replace_v3d_meta_prefilter,step_l,12.0000000000,9.0000000000
global_nonstep,S02,1.0000000000,3,S02_v1.0_T3,0,8,7.1276302338,ok,1,0.9996937175,nmf,sklearn_nmf,platform_onset,analysis_window_end,3.0000000000,12.0000000000,30,120,90,nonstep,False,True,True,subject_mean_step_onset,True,nonstep,nonstep,right,L,young,True,replace_v3d_meta_prefilter,step_l,12.0000000000,9.0000000000
global_nonstep,S02,1.0000000000,3,S02_v1.0_T3,0,9,7.1278004646,ok,1,0.9996937175,nmf,sklearn_nmf,platform_onset,analysis_window_end,3.0000000000,12.0000000000,30,120,90,nonstep,False,True,True,subject_mean_step_onset,True,nonstep,nonstep,right,L,young,True,replace_v3d_meta_prefilter,step_l,12.0000000000,9.0000000000
global_nonstep,S02,1.0000000000,3,S02_v1.0_T3,0,10,7.1279702187,ok,1,0.9996937175,nmf,sklearn_nmf,platform_onset,analysis_window_end,3.0000000000,12.0000000000,30,120,90,nonstep,False,True,True,subject_mean_step_onset,True,nonstep,nonstep,right,L,young,True,replace_v3d_meta_prefilter,step_l,12.0000000000,9.0000000000
global_nonstep,S02,1.0000000000,3,S02_v1.0_T3,0,11,7.1281404495,ok,1,0.9996937175,nmf,sklearn_nmf,platform_onset,analysis_window_end,3.0000000000,12.0000000000,30,120,90,nonstep,False,True,True,subject_mean_step_onset,True,nonstep,nonstep,right,L,young,True,replace_v3d_meta_prefilter,step_l,12.0000000000,9.0000000000
global_nonstep,S02,1.0000000000,3,S02_v1.0_T3,0,12,7.1263232231,ok,1,0.9996937175,nmf,sklearn_nmf,platform_onset,analysis_window_end,3.0000000000,12.0000000000,30,120,90,nonstep,False,True,True,subject_mean_step_onset,True,nonstep,nonstep,right,L,young,True,replace_v3d_meta_prefilter,step_l,12.0000000000,9.0000000000
global_nonstep,S02,1.0000000000,3,S02_v1.0_T3,0,13,7.1245059967,ok,1,0.9996937175,nmf,sklearn_nmf,platform_onset,analysis_window_end,3.0000000000,12.0000000000,30,120,90,nonstep,False,True,True,subject_mean_step_onset,True,nonstep,nonstep,right,L,young,True,replace_v3d_meta_prefilter,step_l,12.0000000000,9.0000000000
global_nonstep,S02,1.0000000000,3,S02_v1.0_T3,0,14,7.1226887703,ok,1,0.9996937175,nmf,sklearn_nmf,platform_onset,analysis_window_end,3.0000000000,12.0000000000,30,120,90,nonstep,False,True,True,subject_mean_step_onset,True,nonstep,nonstep,right,L,young,True,replace_v3d_meta_prefilter,step_l,12.0000000000,9.0000000000
global_nonstep,S02,1.0000000000,3,S02_v1.0_T3,0,15,7.1208715439,ok,1,0.9996937175,nmf,sklearn_nmf,platform_onset,analysis_window_end,3.0000000000,12.0000000000,30,120,90,nonstep,False,True,True,subject_mean_step_onset,True,nonstep,nonstep,right,L,young,True,replace_v3d_meta_prefilter,step_l,12.0000000000,9.0000000000
global_nonstep,S02,1.0000000000,3,S02_v1.0_T3,0,16,7.1190543175,ok,1,0.9996937175,nmf,sklearn_nmf,platform_onset,analysis_window_end,3.0000000000,12.0000000000,30,120,90,nonstep,False,True,True,subject_mean_step_onset,True,nonstep,nonstep,right,L,young,True,replace_v3d_meta_prefilter,step_l,12.0000000000,9.0000000000
global_nonstep,S02,1.0000000000,3,S02_v1.0_T3,0,17,7.1172370911,ok,1,0.9996937175,nmf,sklearn_nmf,platform_onset,analysis_window_end,3.0000000000,12.0000000000,30,120,90,nonstep,False,True,True,subject_mean_step_onset,True,nonstep,nonstep,right,L,young,True,replace_v3d_meta_prefilter,step_l,12.0000000000,9.0000000000
global_nonstep,S02,1.0000000000,3,S02_v1.0_T3,0,18,7.1154198647,ok,1,0.9996937175,nmf,sklearn_nmf,platform_onset,analysis_window_end,3.0000000000,12.0000000000,30,120,90,nonstep,False,True,True,subject_mean_step_onset,True,nonstep,nonstep,right,L,young,True,replace_v3d_meta_prefilter,step_l,12.0000000000,9.0000000000
global_nonstep,S02,1.0000000000,3,S02_v1.0_T3,0,19,7.1136026382,ok,1,0.9996937175,nmf,sklearn_nmf,platform_onset,analysis_window_end,3.0000000000,12.0000000000,30,120,90,nonstep,False,True,True,subject_mean_step_onset,True,nonstep,nonstep,right,L,young,True,replace_v3d_meta_prefilter,step_l,12.0000000000,9.0000000000
global_nonstep,S02,1.0000000000,3,S02_v1.0_T3,0,20,7.1117854118,ok,1,0.9996937175,nmf,sklearn_nmf,platform_onset,analysis_window_end,3.0000000000,12.0000000000,30,120,90,nonstep,False,True,True,subject_mean_step_onset,True,nonstep,nonstep,right,L,young,True,replace_v3d_meta_prefilter,step_l,12.0000000000,9.0000000000
global_nonstep,S02,1.0000000000,3,S02_v1.0_T3,0,21,7.1099681854,ok,1,0.9996937175,nmf,sklearn_nmf,platform_onset,analysis_window_end,3.0000000000,12.0000000000,30,120,90,nonstep,False,True,True,subject_mean_step_onset,True,nonstep,nonstep,right,L,young,True,replace_v3d_meta_prefilter,step_l,12.0000000000,9.0000000000
global_nonstep,S02,1.0000000000,3,S02_v1.0_T3,0,22,7.1081509590,ok,1,0.9996937175,nmf,sklearn_nmf,platform_onset,analysis_window_end,3.0000000000,12.0000000000,30,120,90,nonstep,False,True,True,subject_mean_step_onset,True,nonstep,nonstep,right,L,young,True,replace_v3d_meta_prefilter,step_l,12.0000000000,9.0000000000
global_nonstep,S02,1.0000000000,3,S02_v1.0_T3,0,23,7.1045074463,ok,1,0.9996937175,nmf,sklearn_nmf,platform_onset,analysis_window_end,3.0000000000,12.0000000000,30,120,90,nonstep,False,True,True,subject_mean_step_onset,True,nonstep,nonstep,right,L,young,True,replace_v3d_meta_prefilter,step_l,12.0000000000,9.0000000000
global_nonstep,S02,1.0000000000,3,S02_v1.0_T3,0,24,7.1008639336,ok,1,0.9996937175,nmf,sklearn_nmf,platform_onset,analysis_window_end,3.0000000000,12.0000000000,30,120,90,nonstep,False,True,True,subject_mean_step_onset,True,nonstep,nonstep,right,L,young,True,replace_v3d_meta_prefilter,step_l,12.0000000000,9.0000000000
global_nonstep,S02,1.0000000000,3,S02_v1.0_T3,0,25,7.0972204208,ok,1,0.9996937175,nmf,sklearn_nmf,platform_onset,analysis_window_end,3.0000000000,12.0000000000,30,120,90,nonstep,False,True,True,subject_mean_step_onset,True,nonstep,nonstep,right,L,young,True,replace_v3d_meta_prefilter,step_l,12.0000000000,9.0000000000
global_nonstep,S02,1.0000000000,3,S02_v1.0_T3,0,26,7.0935769081,ok,1,0.9996937175,nmf,sklearn_nmf,platform_onset,analysis_window_end,3.0000000000,12.0000000000,30,120,90,nonstep,False,True,True,subject_mean_step_onset,True,nonstep,nonstep,right,L,young,True,replace_v3d_meta_prefilter,step_l,12.0000000000,9.0000000000
global_nonstep,S02,1.0000000000,3,S02_v1.0_T3,0,27,7.0899333954,ok,1,0.9996937175,nmf,sklearn_nmf,platform_onset,analysis_window_end,3.0000000000,12.0000000000,30,120,90,nonstep,False,True,True,subject_mean_step_onset,True,nonstep,nonstep,right,L,young,True,replace_v3d_meta_prefilter,step_l,12.0000000000,9.0000000000
global_nonstep,S02,1.0000000000,3,S02_v1.0_T3,0,28,7.0862894058,ok,1,0.9996937175,nmf,sklearn_nmf,platform_onset,analysis_window_end,3.0000000000,12.0000000000,30,120,90,nonstep,False,True,True,subject_mean_step_onset,True,nonstep,nonstep,right,L,young,True,replace_v3d_meta_prefilter,step_l,12.0000000000,9.0000000000
global_nonstep,S02,1.0000000000,3,S02_v1.0_T3,0,29,7.0826458931,ok,1,0.9996937175,nmf,sklearn_nmf,platform_onset,analysis_window_end,3.0000000000,12.0000000000,30,120,90,nonstep,False,True,True,subject_mean_step_onset,True,nonstep,nonstep,right,L,young,True,replace_v3d_meta_prefilter,step_l,12.0000000000,9.0000000000
global_nonstep,S02,1.0000000000,3,S02_v1.0_T3,0,30,7.0790023804,ok,1,0.9996937175,nmf,sklearn_nmf,platform_onset,analysis_window_end,3.0000000000,12.0000000000,30,120,90,nonstep,False,True,True,subject_mean_step_onset,True,nonstep,nonstep,right,L,young,True,replace_v3d_meta_prefilter,step_l,12.0000000000,9.0000000000
global_nonstep,S02,1.0000000000,3,S02_v1.0_T3,0,31,7.0753588676,ok,1,0.9996937175,nmf,sklearn_nmf,platform_onset,analysis_window_end,3.0000000000,12.0000000000,30,120,90,nonstep,False,True,True,subject_mean_step_onset,True,nonstep,nonstep,right,L,young,True,replace_v3d_meta_prefilter,step_l,12.0000000000,9.0000000000
global_nonstep,S02,1.0000000000,3,S02_v1.0_T3,0,32,7.0717153549,ok,1,0.9996937175,nmf,sklearn_nmf,platform_onset,analysis_window_end,3.0000000000,12.0000000000,30,120,90,nonstep,False,True,True,subject_mean_step_onset,True,nonstep,nonstep,right,L,young,True,replace_v3d_meta_prefilter,step_l,12.0000000000,9.0000000000
global_nonstep,S02,1.0000000000,3,S02_v1.0_T3,0,33,7.0680718422,ok,1,0.9996937175,nmf,sklearn_nmf,platform_onset,analysis_window_end,3.0000000000,12.0000000000,30,120,90,nonstep,False,True,True,subject_mean_step_onset,True,nonstep,nonstep,right,L,young,True,replace_v3d_meta_prefilter,step_l,12.0000000000,9.0000000000
global_nonstep,S02,1.0000000000,3,S02_v1.0_T3,0,34,7.0628986359,ok,1,0.9996937175,nmf,sklearn_nmf,platform_onset,analysis_window_end,3.0000000000,12.0000000000,30,120,90,nonstep,False,True,True,subject_mean_step_onset,True,nonstep,nonstep,right,L,young,True,replace_v3d_meta_prefilter,step_l,12.0000000000,9.0000000000
global_nonstep,S02,1.0000000000,3,S02_v1.0_T3,0,35,7.0577249527,ok,1,0.9996937175,nmf,sklearn_nmf,platform_onset,analysis_window_end,3.0000000000,12.0000000000,30,120,90,nonstep,False,True,True,subject_mean_step_onset,True,nonstep,nonstep,right,L,young,True,replace_v3d_meta_prefilter,step_l,12.0000000000,9.0000000000
global_nonstep,S02,1.0000000000,3,S02_v1.0_T3,0,36,7.0525517464,ok,1,0.9996937175,nmf,sklearn_nmf,platform_onset,analysis_window_end,3.0000000000,12.0000000000,30,120,90,nonstep,False,True,True,subject_mean_step_onset,True,nonstep,nonstep,right,L,young,True,replace_v3d_meta_prefilter,step_l,12.0000000000,9.0000000000
global_nonstep,S02,1.0000000000,3,S02_v1.0_T3,0,37,7.0473780632,ok,1,0.9996937175,nmf,sklearn_nmf,platform_onset,analysis_window_end,3.0000000000,12.0000000000,30,120,90,nonstep,False,True,True,subject_mean_step_onset,True,nonstep,nonstep,right,L,young,True,replace_v3d_meta_prefilter,step_l,12.0000000000,9.0000000000
global_nonstep,S02,1.0000000000,3,S02_v1.0_T3,0,38,7.0422048569,ok,1,0.9996937175,nmf,sklearn_nmf,platform_onset,analysis_window_end,3.0000000000,12.0000000000,30,120,90,nonstep,False,True,True,subject_mean_step_onset,True,nonstep,nonstep,right,L,young,True,replace_v3d_meta_prefilter,step_l,12.0000000000,9.0000000000
global_nonstep,S02,1.0000000000,3,S02_v1.0_T3,0,39,7.0370311737,ok,1,0.9996937175,nmf,sklearn_nmf,platform_onset,analysis_window_end,3.0000000000,12.0000000000,30,120,90,nonstep,False,True,True,subject_mean_step_onset,True,nonstep,nonstep,right,L,young,True,replace_v3d_meta_prefilter,step_l,12.0000000000,9.0000000000
global_nonstep,S02,1.0000000000,3,S02_v1.0_T3,0,40,7.0318579674,ok,1,0.9996937175,nmf,sklearn_nmf,platform_onset,analysis_window_end,3.0000000000,12.0000000000,30,120,90,nonstep,False,True,True,subject_mean_step_onset,True,nonstep,nonstep,right,L,young,True,replace_v3d_meta_prefilter,step_l,12.0000000000,9.0000000000
global_nonstep,S02,1.0000000000,3,S02_v1.0_T3,0,41,7.0266842842,ok,1,0.9996937175,nmf,sklearn_nmf,platform_onset,analysis_window_end,3.0000000000,12.0000000000,30,120,90,nonstep,False,True,True,subject_mean_step_onset,True,nonstep,nonstep,right,L,young,True,replace_v3d_meta_prefilter,step_l,12.0000000000,9.0000000000
global_nonstep,S02,1.0000000000,3,S02_v1.0_T3,0,42,7.0215110779,ok,1,0.9996937175,nmf,sklearn_nmf,platform_onset,analysis_window_end,3.0000000000,12.0000000000,30,120,90,nonstep,False,True,True,subject_mean_step_onset,True,nonstep,nonstep,right,L,young,True,replace_v3d_meta_prefilter,step_l,12.0000000000,9.0000000000
global_nonstep,S02,1.0000000000,3,S02_v1.0_T3,0,43,7.0163373947,ok,1,0.9996937175,nmf,sklearn_nmf,platform_onset,analysis_window_end,3.0000000000,12.0000000000,30,120,90,nonstep,False,True,True,subject_mean_step_onset,True,nonstep,nonstep,right,L,young,True,replace_v3d_meta_prefilter,step_l,12.0000000000,9.0000000000
global_nonstep,S02,1.0000000000,3,S02_v1.0_T3,0,44,7.0111641884,ok,1,0.9996937175,nmf,sklearn_nmf,platform_onset,analysis_window_end,3.0000000000,12.0000000000,30,120,90,nonstep,False,True,True,subject_mean_step_onset,True,nonstep,nonstep,right,L,young,True,replace_v3d_meta_prefilter,step_l,12.0000000000,9.0000000000
global_nonstep,S02,1.0000000000,3,S02_v1.0_T3,0,45,7.0048708916,ok,1,0.9996937175,nmf,sklearn_nmf,platform_onset,analysis_window_end,3.0000000000,12.0000000000,30,120,90,nonstep,False,True,True,subject_mean_step_onset,True,nonstep,nonstep,right,L,young,True,replace_v3d_meta_prefilter,step_l,12.0000000000,9.0000000000
global_nonstep,S02,1.0000000000,3,S02_v1.0_T3,0,46,6.9985771179,ok,1,0.9996937175,nmf,sklearn_nmf,platform_onset,analysis_window_end,3.0000000000,12.0000000000,30,120,90,nonstep,False,True,True,subject_mean_step_onset,True,nonstep,nonstep,right,L,young,True,replace_v3d_meta_prefilter,step_l,12.0000000000,9.0000000000
global_nonstep,S02,1.0000000000,3,S02_v1.0_T3,0,47,6.9922838211,ok,1,0.9996937175,nmf,sklearn_nmf,platform_onset,analysis_window_end,3.0000000000,12.0000000000,30,120,90,nonstep,False,True,True,subject_mean_step_onset,True,nonstep,nonstep,right,L,young,True,replace_v3d_meta_prefilter,step_l,12.0000000000,9.0000000000
global_nonstep,S02,1.0000000000,3,S02_v1.0_T3,0,48,6.9859905243,ok,1,0.9996937175,nmf,sklearn_nmf,platform_onset,analysis_window_end,3.0000000000,12.0000000000,30,120,90,nonstep,False,True,True,subject_mean_step_onset,True,nonstep,nonstep,right,L,young,True,replace_v3d_meta_prefilter,step_l,12.0000000000,9.0000000000
global_nonstep,S02,1.0000000000,3,S02_v1.0_T3,0,49,6.9796972275,ok,1,0.9996937175,nmf,sklearn_nmf,platform_onset,analysis_window_end,3.0000000000,12.0000000000,30,120,90,nonstep,False,True,True,subject_mean_step_onset,True,nonstep,nonstep,right,L,young,True,replace_v3d_meta_prefilter,step_l,12.0000000000,9.0000000000
global_nonstep,S02,1.0000000000,3,S02_v1.0_T3,0,50,6.9734034538,ok,1,0.9996937175,nmf,sklearn_nmf,platform_onset,analysis_window_end,3.0000000000,12.0000000000,30,120,90,nonstep,False,True,True,subject_mean_step_onset,True,nonstep,nonstep,right,L,young,True,replace_v3d_meta_prefilter,step_l,12.0000000000,9.0000000000
global_nonstep,S02,1.0000000000,3,S02_v1.0_T3,0,51,6.9671101570,ok,1,0.9996937175,nmf,sklearn_nmf,platform_onset,analysis_window_end,3.0000000000,12.0000000000,30,120,90,nonstep,False,True,True,subject_mean_step_onset,True,nonstep,nonstep,right,L,young,True,replace_v3d_meta_prefilter,step_l,12.0000000000,9.0000000000
global_nonstep,S02,1.0000000000,3,S02_v1.0_T3,0,52,6.9608168602,ok,1,0.9996937175,nmf,sklearn_nmf,platform_onset,analysis_window_end,3.0000000000,12.0000000000,30,120,90,nonstep,False,True,True,subject_mean_step_onset,True,nonstep,nonstep,right,L,young,True,replace_v3d_meta_prefilter,step_l,12.0000000000,9.0000000000
global_nonstep,S02,1.0000000000,3,S02_v1.0_T3,0,53,6.9545235634,ok,1,0.9996937175,nmf,sklearn_nmf,platform_onset,analysis_window_end,3.0000000000,12.0000000000,30,120,90,nonstep,False,True,True,subject_mean_step_onset,True,nonstep,nonstep,right,L,young,True,replace_v3d_meta_prefilter,step_l,12.0000000000,9.0000000000
global_nonstep,S02,1.0000000000,3,S02_v1.0_T3,0,54,6.9482297897,ok,1,0.9996937175,nmf,sklearn_nmf,platform_onset,analysis_window_end,3.0000000000,12.0000000000,30,120,90,nonstep,False,True,True,subject_mean_step_onset,True,nonstep,nonstep,right,L,young,True,replace_v3d_meta_prefilter,step_l,12.0000000000,9.0000000000
global_nonstep,S02,1.0000000000,3,S02_v1.0_T3,0,55,6.9419364929,ok,1,0.9996937175,nmf,sklearn_nmf,platform_onset,analysis_window_end,3.0000000000,12.0000000000,30,120,90,nonstep,False,True,True,subject_mean_step_onset,True,nonstep,nonstep,right,L,young,True,replace_v3d_meta_prefilter,step_l,12.0000000000,9.0000000000
global_nonstep,S02,1.0000000000,3,S02_v1.0_T3,0,56,6.9350161552,ok,1,0.9996937175,nmf,sklearn_nmf,platform_onset,analysis_window_end,3.0000000000,12.0000000000,30,120,90,nonstep,False,True,True,subject_mean_step_onset,True,nonstep,nonstep,right,L,young,True,replace_v3d_meta_prefilter,step_l,12.0000000000,9.0000000000
global_nonstep,S02,1.0000000000,3,S02_v1.0_T3,0,57,6.9280953407,ok,1,0.9996937175,nmf,sklearn_nmf,platform_onset,analysis_window_end,3.0000000000,12.0000000000,30,120,90,nonstep,False,True,True,subject_mean_step_onset,True,nonstep,nonstep,right,L,young,True,replace_v3d_meta_prefilter,step_l,12.0000000000,9.0000000000
global_nonstep,S02,1.0000000000,3,S02_v1.0_T3,0,58,6.9211750031,ok,1,0.9996937175,nmf,sklearn_nmf,platform_onset,analysis_window_end,3.0000000000,12.0000000000,30,120,90,nonstep,False,True,True,subject_mean_step_onset,True,nonstep,nonstep,right,L,young,True,replace_v3d_meta_prefilter,step_l,12.0000000000,9.0000000000
global_nonstep,S02,1.0000000000,3,S02_v1.0_T3,0,59,6.9142541885,ok,1,0.9996937175,nmf,sklearn_nmf,platform_onset,analysis_window_end,3.0000000000,12.0000000000,30,120,90,nonstep,False,True,True,subject_mean_step_onset,True,nonstep,nonstep,right,L,young,True,replace_v3d_meta_prefilter,step_l,12.0000000000,9.0000000000
global_nonstep,S02,1.0000000000,3,S02_v1.0_T3,0,60,6.9073338509,ok,1,0.9996937175,nmf,sklearn_nmf,platform_onset,analysis_window_end,3.0000000000,12.0000000000,30,120,90,nonstep,False,True,True,subject_mean_step_onset,True,nonstep,nonstep,right,L,young,True,replace_v3d_meta_prefilter,step_l,12.0000000000,9.0000000000
global_nonstep,S02,1.0000000000,3,S02_v1.0_T3,0,61,6.9004130363,ok,1,0.9996937175,nmf,sklearn_nmf,platform_onset,analysis_window_end,3.0000000000,12.0000000000,30,120,90,nonstep,False,True,True,subject_mean_step_onset,True,nonstep,nonstep,right,L,young,True,replace_v3d_meta_prefilter,step_l,12.0000000000,9.0000000000
global_nonstep,S02,1.0000000000,3,S02_v1.0_T3,0,62,6.8934926987,ok,1,0.9996937175,nmf,sklearn_nmf,platform_onset,analysis_window_end,3.0000000000,12.0000000000,30,120,90,nonstep,False,True,True,subject_mean_step_onset,True,nonstep,nonstep,right,L,young,True,replace_v3d_meta_prefilter,step_l,12.0000000000,9.0000000000
global_nonstep,S02,1.0000000000,3,S02_v1.0_T3,0,63,6.8865718842,ok,1,0.9996937175,nmf,sklearn_nmf,platform_onset,analysis_window_end,3.0000000000,12.0000000000,30,120,90,nonstep,False,True,True,subject_mean_step_onset,True,nonstep,nonstep,right,L,young,True,replace_v3d_meta_prefilter,step_l,12.0000000000,9.0000000000
global_nonstep,S02,1.0000000000,3,S02_v1.0_T3,0,64,6.8796515465,ok,1,0.9996937175,nmf,sklearn_nmf,platform_onset,analysis_window_end,3.0000000000,12.0000000000,30,120,90,nonstep,False,True,True,subject_mean_step_onset,True,nonstep,nonstep,right,L,young,True,replace_v3d_meta_prefilter,step_l,12.0000000000,9.0000000000
global_nonstep,S02,1.0000000000,3,S02_v1.0_T3,0,65,6.8727307320,ok,1,0.9996937175,nmf,sklearn_nmf,platform_onset,analysis_window_end,3.0000000000,12.0000000000,30,120,90,nonstep,False,True,True,subject_mean_step_onset,True,nonstep,nonstep,right,L,young,True,replace_v3d_meta_prefilter,step_l,12.0000000000,9.0000000000
global_nonstep,S02,1.0000000000,3,S02_v1.0_T3,0,66,6.8658103943,ok,1,0.9996937175,nmf,sklearn_nmf,platform_onset,analysis_window_end,3.0000000000,12.0000000000,30,120,90,nonstep,False,True,True,subject_mean_step_onset,True,nonstep,nonstep,right,L,young,True,replace_v3d_meta_prefilter,step_l,12.0000000000,9.0000000000
global_nonstep,S02,1.0000000000,3,S02_v1.0_T3,0,67,6.8588023186,ok,1,0.9996937175,nmf,sklearn_nmf,platform_onset,analysis_window_end,3.0000000000,12.0000000000,30,120,90,nonstep,False,True,True,subject_mean_step_onset,True,nonstep,nonstep,right,L,young,True,replace_v3d_meta_prefilter,step_l,12.0000000000,9.0000000000
global_nonstep,S02,1.0000000000,3,S02_v1.0_T3,0,68,6.8517937660,ok,1,0.9996937175,nmf,sklearn_nmf,platform_onset,analysis_window_end,3.0000000000,12.0000000000,30,120,90,nonstep,False,True,True,subject_mean_step_onset,True,nonstep,nonstep,right,L,young,True,replace_v3d_meta_prefilter,step_l,12.0000000000,9.0000000000
global_nonstep,S02,1.0000000000,3,S02_v1.0_T3,0,69,6.8447856903,ok,1,0.9996937175,nmf,sklearn_nmf,platform_onset,analysis_window_end,3.0000000000,12.0000000000,30,120,90,nonstep,False,True,True,subject_mean_step_onset,True,nonstep,nonstep,right,L,young,True,replace_v3d_meta_prefilter,step_l,12.0000000000,9.0000000000
global_nonstep,S02,1.0000000000,3,S02_v1.0_T3,0,70,6.8377771378,ok,1,0.9996937175,nmf,sklearn_nmf,platform_onset,analysis_window_end,3.0000000000,12.0000000000,30,120,90,nonstep,False,True,True,subject_mean_step_onset,True,nonstep,nonstep,right,L,young,True,replace_v3d_meta_prefilter,step_l,12.0000000000,9.0000000000
global_nonstep,S02,1.0000000000,3,S02_v1.0_T3,0,71,6.8307690620,ok,1,0.9996937175,nmf,sklearn_nmf,platform_onset,analysis_window_end,3.0000000000,12.0000000000,30,120,90,nonstep,False,True,True,subject_mean_step_onset,True,nonstep,nonstep,right,L,young,True,replace_v3d_meta_prefilter,step_l,12.0000000000,9.0000000000
global_nonstep,S02,1.0000000000,3,S02_v1.0_T3,0,72,6.8237605095,ok,1,0.9996937175,nmf,sklearn_nmf,platform_onset,analysis_window_end,3.0000000000,12.0000000000,30,120,90,nonstep,False,True,True,subject_mean_step_onset,True,nonstep,nonstep,right,L,young,True,replace_v3d_meta_prefilter,step_l,12.0000000000,9.0000000000
global_nonstep,S02,1.0000000000,3,S02_v1.0_T3,0,73,6.8167524338,ok,1,0.9996937175,nmf,sklearn_nmf,platform_onset,analysis_window_end,3.0000000000,12.0000000000,30,120,90,nonstep,False,True,True,subject_mean_step_onset,True,nonstep,nonstep,right,L,young,True,replace_v3d_meta_prefilter,step_l,12.0000000000,9.0000000000
global_nonstep,S02,1.0000000000,3,S02_v1.0_T3,0,74,6.8097438812,ok,1,0.9996937175,nmf,sklearn_nmf,platform_onset,analysis_window_end,3.0000000000,12.0000000000,30,120,90,nonstep,False,True,True,subject_mean_step_onset,True,nonstep,nonstep,right,L,young,True,replace_v3d_meta_prefilter,step_l,12.0000000000,9.0000000000
global_nonstep,S02,1.0000000000,3,S02_v1.0_T3,0,75,6.8027358055,ok,1,0.9996937175,nmf,sklearn_nmf,platform_onset,analysis_window_end,3.0000000000,12.0000000000,30,120,90,nonstep,False,True,True,subject_mean_step_onset,True,nonstep,nonstep,right,L,young,True,replace_v3d_meta_prefilter,step_l,12.0000000000,9.0000000000
global_nonstep,S02,1.0000000000,3,S02_v1.0_T3,0,76,6.7957272530,ok,1,0.9996937175,nmf,sklearn_nmf,platform_onset,analysis_window_end,3.0000000000,12.0000000000,30,120,90,nonstep,False,True,True,subject_mean_step_onset,True,nonstep,nonstep,right,L,young,True,replace_v3d_meta_prefilter,step_l,12.0000000000,9.0000000000
global_nonstep,S02,1.0000000000,3,S02_v1.0_T3,0,77,6.7887191772,ok,1,0.9996937175,nmf,sklearn_nmf,platform_onset,analysis_window_end,3.0000000000,12.0000000000,30,120,90,nonstep,False,True,True,subject_mean_step_onset,True,nonstep,nonstep,right,L,young,True,replace_v3d_meta_prefilter,step_l,12.0000000000,9.0000000000
global_nonstep,S02,1.0000000000,3,S02_v1.0_T3,0,78,6.7821693420,ok,1,0.9996937175,nmf,sklearn_nmf,platform_onset,analysis_window_end,3.0000000000,12.0000000000,30,120,90,nonstep,False,True,True,subject_mean_step_onset,True,nonstep,nonstep,right,L,young,True,replace_v3d_meta_prefilter,step_l,12.0000000000,9.0000000000
global_nonstep,S02,1.0000000000,3,S02_v1.0_T3,0,79,6.7756195068,ok,1,0.9996937175,nmf,sklearn_nmf,platform_onset,analysis_window_end,3.0000000000,12.0000000000,30,120,90,nonstep,False,True,True,subject_mean_step_onset,True,nonstep,nonstep,right,L,young,True,replace_v3d_meta_prefilter,step_l,12.0000000000,9.0000000000
global_nonstep,S02,1.0000000000,3,S02_v1.0_T3,0,80,6.7690696716,ok,1,0.9996937175,nmf,sklearn_nmf,platform_onset,analysis_window_end,3.0000000000,12.0000000000,30,120,90,nonstep,False,True,True,subject_mean_step_onset,True,nonstep,nonstep,right,L,young,True,replace_v3d_meta_prefilter,step_l,12.0000000000,9.0000000000
global_nonstep,S02,1.0000000000,3,S02_v1.0_T3,0,81,6.7625198364,ok,1,0.9996937175,nmf,sklearn_nmf,platform_onset,analysis_window_end,3.0000000000,12.0000000000,30,120,90,nonstep,False,True,True,subject_mean_step_onset,True,nonstep,nonstep,right,L,young,True,replace_v3d_meta_prefilter,step_l,12.0000000000,9.0000000000
global_nonstep,S02,1.0000000000,3,S02_v1.0_T3,0,82,6.7559700012,ok,1,0.9996937175,nmf,sklearn_nmf,platform_onset,analysis_window_end,3.0000000000,12.0000000000,30,120,90,nonstep,False,True,True,subject_mean_step_onset,True,nonstep,nonstep,right,L,young,True,replace_v3d_meta_prefilter,step_l,12.0000000000,9.0000000000
global_nonstep,S02,1.0000000000,3,S02_v1.0_T3,0,83,6.7494201660,ok,1,0.9996937175,nmf,sklearn_nmf,platform_onset,analysis_window_end,3.0000000000,12.0000000000,30,120,90,nonstep,False,True,True,subject_mean_step_onset,True,nonstep,nonstep,right,L,young,True,replace_v3d_meta_prefilter,step_l,12.0000000000,9.0000000000
global_nonstep,S02,1.0000000000,3,S02_v1.0_T3,0,84,6.7428703308,ok,1,0.9996937175,nmf,sklearn_nmf,platform_onset,analysis_window_end,3.0000000000,12.0000000000,30,120,90,nonstep,False,True,True,subject_mean_step_onset,True,nonstep,nonstep,right,L,young,True,replace_v3d_meta_prefilter,step_l,12.0000000000,9.0000000000
global_nonstep,S02,1.0000000000,3,S02_v1.0_T3,0,85,6.7363204956,ok,1,0.9996937175,nmf,sklearn_nmf,platform_onset,analysis_window_end,3.0000000000,12.0000000000,30,120,90,nonstep,False,True,True,subject_mean_step_onset,True,nonstep,nonstep,right,L,young,True,replace_v3d_meta_prefilter,step_l,12.0000000000,9.0000000000
global_nonstep,S02,1.0000000000,3,S02_v1.0_T3,0,86,6.7297706604,ok,1,0.9996937175,nmf,sklearn_nmf,platform_onset,analysis_window_end,3.0000000000,12.0000000000,30,120,90,nonstep,False,True,True,subject_mean_step_onset,True,nonstep,nonstep,right,L,young,True,replace_v3d_meta_prefilter,step_l,12.0000000000,9.0000000000
global_nonstep,S02,1.0000000000,3,S02_v1.0_T3,0,87,6.7232208252,ok,1,0.9996937175,nmf,sklearn_nmf,platform_onset,analysis_window_end,3.0000000000,12.0000000000,30,120,90,nonstep,False,True,True,subject_mean_step_onset,True,nonstep,nonstep,right,L,young,True,replace_v3d_meta_prefilter,step_l,12.0000000000,9.0000000000
global_nonstep,S02,1.0000000000,3,S02_v1.0_T3,0,88,6.7166709900,ok,1,0.9996937175,nmf,sklearn_nmf,platform_onset,analysis_window_end,3.0000000000,12.0000000000,30,120,90,nonstep,False,True,True,subject_mean_step_onset,True,nonstep,nonstep,right,L,young,True,replace_v3d_meta_prefilter,step_l,12.0000000000,9.0000000000
global_nonstep,S02,1.0000000000,3,S02_v1.0_T3,0,89,6.7110910416,ok,1,0.9996937175,nmf,sklearn_nmf,platform_onset,analysis_window_end,3.0000000000,12.0000000000,30,120,90,nonstep,False,True,True,subject_mean_step_onset,True,nonstep,nonstep,right,L,young,True,replace_v3d_meta_prefilter,step_l,12.0000000000,9.0000000000
global_nonstep,S02,1.0000000000,3,S02_v1.0_T3,0,90,6.7055115700,ok,1,0.9996937175,nmf,sklearn_nmf,platform_onset,analysis_window_end,3.0000000000,12.0000000000,30,120,90,nonstep,False,True,True,subject_mean_step_onset,True,nonstep,nonstep,right,L,young,True,replace_v3d_meta_prefilter,step_l,12.0000000000,9.0000000000
global_nonstep,S02,1.0000000000,3,S02_v1.0_T3,0,91,6.6999316216,ok,1,0.9996937175,nmf,sklearn_nmf,platform_onset,analysis_window_end,3.0000000000,12.0000000000,30,120,90,nonstep,False,True,True,subject_mean_step_onset,True,nonstep,nonstep,right,L,young,True,replace_v3d_meta_prefilter,step_l,12.0000000000,9.0000000000
global_nonstep,S02,1.0000000000,3,S02_v1.0_T3,0,92,6.6943521500,ok,1,0.9996937175,nmf,sklearn_nmf,platform_onset,analysis_window_end,3.0000000000,12.0000000000,30,120,90,nonstep,False,True,True,subject_mean_step_onset,True,nonstep,nonstep,right,L,young,True,replace_v3d_meta_prefilter,step_l,12.0000000000,9.0000000000
global_nonstep,S02,1.0000000000,3,S02_v1.0_T3,0,93,6.6887722015,ok,1,0.9996937175,nmf,sklearn_nmf,platform_onset,analysis_window_end,3.0000000000,12.0000000000,30,120,90,nonstep,False,True,True,subject_mean_step_onset,True,nonstep,nonstep,right,L,young,True,replace_v3d_meta_prefilter,step_l,12.0000000000,9.0000000000
global_nonstep,S02,1.0000000000,3,S02_v1.0_T3,0,94,6.6831927299,ok,1,0.9996937175,nmf,sklearn_nmf,platform_onset,analysis_window_end,3.0000000000,12.0000000000,30,120,90,nonstep,False,True,True,subject_mean_step_onset,True,nonstep,nonstep,right,L,young,True,replace_v3d_meta_prefilter,step_l,12.0000000000,9.0000000000
global_nonstep,S02,1.0000000000,3,S02_v1.0_T3,0,95,6.6776127815,ok,1,0.9996937175,nmf,sklearn_nmf,platform_onset,analysis_window_end,3.0000000000,12.0000000000,30,120,90,nonstep,False,True,True,subject_mean_step_onset,True,nonstep,nonstep,right,L,young,True,replace_v3d_meta_prefilter,step_l,12.0000000000,9.0000000000
global_nonstep,S02,1.0000000000,3,S02_v1.0_T3,0,96,6.6720333099,ok,1,0.9996937175,nmf,sklearn_nmf,platform_onset,analysis_window_end,3.0000000000,12.0000000000,30,120,90,nonstep,False,True,True,subject_mean_step_onset,True,nonstep,nonstep,right,L,young,True,replace_v3d_meta_prefilter,step_l,12.0000000000,9.0000000000
global_nonstep,S02,1.0000000000,3,S02_v1.0_T3,0,97,6.6664533615,ok,1,0.9996937175,nmf,sklearn_nmf,platform_onset,analysis_window_end,3.0000000000,12.0000000000,30,120,90,nonstep,False,True,True,subject_mean_step_onset,True,nonstep,nonstep,right,L,young,True,replace_v3d_meta_prefilter,step_l,12.0000000000,9.0000000000
global_nonstep,S02,1.0000000000,3,S02_v1.0_T3,0,98,6.6608738899,ok,1,0.9996937175,nmf,sklearn_nmf,platform_onset,analysis_window_end,3.0000000000,12.0000000000,30,120,90,nonstep,False,True,True,subject_mean_step_onset,True,nonstep,nonstep,right,L,young,True,replace_v3d_meta_prefilter,step_l,12.0000000000,9.0000000000
global_nonstep,S02,1.0000000000,3,S02_v1.0_T3,0,99,6.6552939415,ok,1,0.9996937175,nmf,sklearn_nmf,platform_onset,analysis_window_end,3.0000000000,12.0000000000,30,120,90,nonstep,False,True,True,subject_mean_step_onset,True,nonstep,nonstep,right,L,young,True,replace_v3d_meta_prefilter,step_l,12.0000000000,9.0000000000
global_nonstep,S02,1.0000000000,4,S02_v1.0_T4,0,0,7.5659322739,ok,1,0.9997281860,nmf,sklearn_nmf,platform_onset,analysis_window_end,3.0000000000,12.0000000000,30,120,90,nonstep,False,True,True,subject_mean_step_onset,True,footlift,footlift,right,L,young,True,replace_v3d_meta_prefilter,step_l,12.0000000000,9.0000000000
global_nonstep,S02,1.0000000000,4,S02_v1.0_T4,0,1,7.5660929680,ok,1,0.9997281860,nmf,sklearn_nmf,platform_onset,analysis_window_end,3.0000000000,12.0000000000,30,120,90,nonstep,False,True,True,subject_mean_step_onset,True,footlift,footlift,right,L,young,True,replace_v3d_meta_prefilter,step_l,12.0000000000,9.0000000000
global_nonstep,S02,1.0000000000,4,S02_v1.0_T4,0,2,7.5662531853,ok,1,0.9997281860,nmf,sklearn_nmf,platform_onset,analysis_window_end,3.0000000000,12.0000000000,30,120,90,nonstep,False,True,True,subject_mean_step_onset,True,footlift,footlift,right,L,young,True,replace_v3d_meta_prefilter,step_l,12.0000000000,9.0000000000
global_nonstep,S02,1.0000000000,4,S02_v1.0_T4,0,3,7.5664138794,ok,1,0.9997281860,nmf,sklearn_nmf,platform_onset,analysis_window_end,3.0000000000,12.0000000000,30,120,90,nonstep,False,True,True,subject_mean_step_onset,True,footlift,footlift,right,L,young,True,replace_v3d_meta_prefilter,step_l,12.0000000000,9.0000000000
global_nonstep,S02,1.0000000000,4,S02_v1.0_T4,0,4,7.5665745735,ok,1,0.9997281860,nmf,sklearn_nmf,platform_onset,analysis_window_end,3.0000000000,12.0000000000,30,120,90,nonstep,False,True,True,subject_mean_step_onset,True,footlift,footlift,right,L,young,True,replace_v3d_meta_prefilter,step_l,12.0000000000,9.0000000000
global_nonstep,S02,1.0000000000,4,S02_v1.0_T4,0,5,7.5667347908,ok,1,0.9997281860,nmf,sklearn_nmf,platform_onset,analysis_window_end,3.0000000000,12.0000000000,30,120,90,nonstep,False,True,True,subject_mean_step_onset,True,footlift,footlift,right,L,young,True,replace_v3d_meta_prefilter,step_l,12.0000000000,9.0000000000
global_nonstep,S02,1.0000000000,4,S02_v1.0_T4,0,6,7.5668954849,ok,1,0.9997281860,nmf,sklearn_nmf,platform_onset,analysis_window_end,3.0000000000,12.0000000000,30,120,90,nonstep,False,True,True,subject_mean_step_onset,True,footlift,footlift,right,L,young,True,replace_v3d_meta_prefilter,step_l,12.0000000000,9.0000000000
global_nonstep,S02,1.0000000000,4,S02_v1.0_T4,0,7,7.5670557022,ok,1,0.9997281860,nmf,sklearn_nmf,platform_onset,analysis_window_end,3.0000000000,12.0000000000,30,120,90,nonstep,False,True,True,subject_mean_step_onset,True,footlift,footlift,right,L,young,True,replace_v3d_meta_prefilter,step_l,12.0000000000,9.0000000000
global_nonstep,S02,1.0000000000,4,S02_v1.0_T4,0,8,7.5672163963,ok,1,0.9997281860,nmf,sklearn_nmf,platform_onset,analysis_window_end,3.0000000000,12.0000000000,30,120,90,nonstep,False,True,True,subject_mean_step_onset,True,footlift,footlift,right,L,young,True,replace_v3d_meta_prefilter,step_l,12.0000000000,9.0000000000
global_nonstep,S02,1.0000000000,4,S02_v1.0_T4,0,9,7.5673770905,ok,1,0.9997281860,nmf,sklearn_nmf,platform_onset,analysis_window_end,3.0000000000,12.0000000000,30,120,90,nonstep,False,True,True,subject_mean_step_onset,True,footlift,footlift,right,L,young,True,replace_v3d_meta_prefilter,step_l,12.0000000000,9.0000000000
global_nonstep,S02,1.0000000000,4,S02_v1.0_T4,0,10,7.5675373077,ok,1,0.9997281860,nmf,sklearn_nmf,platform_onset,analysis_window_end,3.0000000000,12.0000000000,30,120,90,nonstep,False,True,True,subject_mean_step_onset,True,footlift,footlift,right,L,young,True,replace_v3d_meta_prefilter,step_l,12.0000000000,9.0000000000
