group_id,subject,velocity,trial_num,trial_id,component_index,frame_idx,h_value,status,n_components,vaf,extractor_type,extractor_backend,extractor_torch_device,extractor_torch_dtype,analysis_window_onset_column,analysis_window_offset_column,analysis_window_start,analysis_window_end,analysis_window_start_device,analysis_window_end_device,analysis_window_duration_device_frames,analysis_step_class,analysis_is_step,analysis_is_nonstep,analysis_is_mixed_flag,analysis_window_source,analysis_window_is_surrogate,analysis_state,analysis_state_norm,analysis_stance_side,analysis_dominant_side,analysis_age_group,analysis_selected_group,analysis_selection_rule,analysis_major_step_side,analysis_subject_mean_step_onset,analysis_subject_mean_step_latency
global_step,S01,1.0000000000,1,S01_v1.0_T1,0,0,3.0579209328,ok,1,0.9987036803,nmf,torchnmf,cpu,float32,platform_onset,analysis_window_end,3.0000000000,11.0000000000,30,110,80,step,True,False,True,actual_step_onset,False,step_R,step_r,left,R,young,True,replace_v3d_meta_prefilter,step_r,12.0000000000,9.0000000000
global_step,S01,1.0000000000,1,S01_v1.0_T1,0,1,3.0579285622,ok,1,0.9987036803,nmf,torchnmf,cpu,float32,platform_onset,analysis_window_end,3.0000000000,11.0000000000,30,110,80,step,True,False,True,actual_step_onset,False,step_R,step_r,left,R,young,True,replace_v3d_meta_prefilter,step_r,12.0000000000,9.0000000000
global_step,S01,1.0000000000,1,S01_v1.0_T1,0,2,3.0579361916,ok,1,0.9987036803,nmf,torchnmf,cpu,float32,platform_onset,analysis_window_end,3.0000000000,11.0000000000,30,110,80,step,True,False,True,actual_step_onset,False,step_R,step_r,left,R,young,True,replace_v3d_meta_prefilter,step_r,12.0000000000,9.0000000000
global_step,S01,1.0000000000,1,S01_v1.0_T1,0,3,3.0579440594,ok,1,0.9987036803,nmf,torchnmf,cpu,float32,platform_onset,analysis_window_end,3.0000000000,11.0000000000,30,110,80,step,True,False,True,actual_step_onset,False,step_R,step_r,left,R,young,True,replace_v3d_meta_prefilter,step_r,12.0000000000,9.0000000000
global_step,S01,1.0000000000,1,S01_v1.0_T1,0,4,3.0579516888,ok,1,0.9987036803,nmf,torchnmf,cpu,float32,platform_onset,analysis_window_end,3.0000000000,11.0000000000,30,110,80,step,True,False,True,actual_step_onset,False,step_R,step_r,left,R,young,True,replace_v3d_meta_prefilter,step_r,12.0000000000,9.0000000000
global_step,S01,1.0000000000,1,S01_v1.0_T1,0,5,3.0579593182,ok,1,0.9987036803,nmf,torchnmf,cpu,float32,platform_onset,analysis_window_end,3.0000000000,11.0000000000,30,110,80,step,True,False,True,actual_step_onset,False,step_R,step_r,left,R,young,True,replace_v3d_meta_prefilter,step_r,12.0000000000,9.0000000000
global_step,S01,1.0000000000,1,S01_v1.0_T1,0,6,3.0579669476,ok,1,0.9987036803,nmf,torchnmf,cpu,float32,platform_onset,analysis_window_end,3.0000000000,11.0000000000,30,110,80,step,True,False,True,actual_step_onset,False,step_R,step_r,left,R,young,True,replace_v3d_meta_prefilter,step_r,12.0000000000,9.0000000000
global_step,S01,1.0000000000,1,S01_v1.0_T1,0,7,3.0579748154,ok,1,0.9987036803,nmf,torchnmf,cpu,float32,platform_onset,analysis_window_end,3.0000000000,11.0000000000,30,110,80,step,True,False,True,actual_step_onset,False,step_R,step_r,left,R,young,True,replace_v3d_meta_prefilter,step_r,12.0000000000,9.0000000000
global_step,S01,1.0000000000,1,S01_v1.0_T1,0,8,3.0579824448,ok,1,0.9987036803,nmf,torchnmf,cpu,float32,platform_onset,analysis_window_end,3.0000000000,11.0000000000,30,110,80,step,True,False,True,actual_step_onset,False,step_R,step_r,left,R,young,True,replace_v3d_meta_prefilter,step_r,12.0000000000,9.0000000000
global_step,S01,1.0000000000,1,S01_v1.0_T1,0,9,3.0579900742,ok,1,0.9987036803,nmf,torchnmf,cpu,float32,platform_onset,analysis_window_end,3.0000000000,11.0000000000,30,110,80,step,True,False,True,actual_step_onset,False,step_R,step_r,left,R,young,True,replace_v3d_meta_prefilter,step_r,12.0000000000,9.0000000000
global_step,S01,1.0000000000,1,S01_v1.0_T1,0,10,3.0579977036,ok,1,0.9987036803,nmf,torchnmf,cpu,float32,platform_onset,analysis_window_end,3.0000000000,11.0000000000,30,110,80,step,True,False,True,actual_step_onset,False,step_R,step_r,left,R,young,True,replace_v3d_meta_prefilter,step_r,12.0000000000,9.0000000000
global_step,S01,1.0000000000,1,S01_v1.0_T1,0,11,3.0580055714,ok,1,0.9987036803,nmf,torchnmf,cpu,float32,platform_onset,analysis_window_end,3.0000000000,11.0000000000,30,110,80,step,True,False,True,actual_step_onset,False,step_R,step_r,left,R,young,True,replace_v3d_meta_prefilter,step_r,12.0000000000,9.0000000000
global_step,S01,1.0000000000,1,S01_v1.0_T1,0,12,3.0580132008,ok,1,0.9987036803,nmf,torchnmf,cpu,float32,platform_onset,analysis_window_end,3.0000000000,11.0000000000,30,110,80,step,True,False,True,actual_step_onset,False,step_R,step_r,left,R,young,True,replace_v3d_meta_prefilter,step_r,12.0000000000,9.0000000000
global_step,S01,1.0000000000,1,S01_v1.0_T1,0,13,3.0569396019,ok,1,0.9987036803,nmf,torchnmf,cpu,float32,platform_onset,analysis_window_end,3.0000000000,11.0000000000,30,110,80,step,True,False,True,actual_step_onset,False,step_R,step_r,left,R,young,True,replace_v3d_meta_prefilter,step_r,12.0000000000,9.0000000000
global_step,S01,1.0000000000,1,S01_v1.0_T1,0,14,3.0552172661,ok,1,0.9987036803,nmf,torchnmf,cpu,float32,platform_onset,analysis_window_end,3.0000000000,11.0000000000,30,110,80,step,True,False,True,actual_step_onset,False,step_R,step_r,left,R,young,True,replace_v3d_meta_prefilter,step_r,12.0000000000,9.0000000000
global_step,S01,1.0000000000,1,S01_v1.0_T1,0,15,3.0534949303,ok,1,0.9987036803,nmf,torchnmf,cpu,float32,platform_onset,analysis_window_end,3.0000000000,11.0000000000,30,110,80,step,True,False,True,actual_step_onset,False,step_R,step_r,left,R,young,True,replace_v3d_meta_prefilter,step_r,12.0000000000,9.0000000000
global_step,S01,1.0000000000,1,S01_v1.0_T1,0,16,3.0517728329,ok,1,0.9987036803,nmf,torchnmf,cpu,float32,platform_onset,analysis_window_end,3.0000000000,11.0000000000,30,110,80,step,True,False,True,actual_step_onset,False,step_R,step_r,left,R,young,True,replace_v3d_meta_prefilter,step_r,12.0000000000,9.0000000000
global_step,S01,1.0000000000,1,S01_v1.0_T1,0,17,3.0500504971,ok,1,0.9987036803,nmf,torchnmf,cpu,float32,platform_onset,analysis_window_end,3.0000000000,11.0000000000,30,110,80,step,True,False,True,actual_step_onset,False,step_R,step_r,left,R,young,True,replace_v3d_meta_prefilter,step_r,12.0000000000,9.0000000000
global_step,S01,1.0000000000,1,S01_v1.0_T1,0,18,3.0483281612,ok,1,0.9987036803,nmf,torchnmf,cpu,float32,platform_onset,analysis_window_end,3.0000000000,11.0000000000,30,110,80,step,True,False,True,actual_step_onset,False,step_R,step_r,left,R,young,True,replace_v3d_meta_prefilter,step_r,12.0000000000,9.0000000000
global_step,S01,1.0000000000,1,S01_v1.0_T1,0,19,3.0466058254,ok,1,0.9987036803,nmf,torchnmf,cpu,float32,platform_onset,analysis_window_end,3.0000000000,11.0000000000,30,110,80,step,True,False,True,actual_step_onset,False,step_R,step_r,left,R,young,True,replace_v3d_meta_prefilter,step_r,12.0000000000,9.0000000000
global_step,S01,1.0000000000,1,S01_v1.0_T1,0,20,3.0448834896,ok,1,0.9987036803,nmf,torchnmf,cpu,float32,platform_onset,analysis_window_end,3.0000000000,11.0000000000,30,110,80,step,True,False,True,actual_step_onset,False,step_R,step_r,left,R,young,True,replace_v3d_meta_prefilter,step_r,12.0000000000,9.0000000000
global_step,S01,1.0000000000,1,S01_v1.0_T1,0,21,3.0431611538,ok,1,0.9987036803,nmf,torchnmf,cpu,float32,platform_onset,analysis_window_end,3.0000000000,11.0000000000,30,110,80,step,True,False,True,actual_step_onset,False,step_R,step_r,left,R,young,True,replace_v3d_meta_prefilter,step_r,12.0000000000,9.0000000000
global_step,S01,1.0000000000,1,S01_v1.0_T1,0,22,3.0414390564,ok,1,0.9987036803,nmf,torchnmf,cpu,float32,platform_onset,analysis_window_end,3.0000000000,11.0000000000,30,110,80,step,True,False,True,actual_step_onset,False,step_R,step_r,left,R,young,True,replace_v3d_meta_prefilter,step_r,12.0000000000,9.0000000000
global_step,S01,1.0000000000,1,S01_v1.0_T1,0,23,3.0397167206,ok,1,0.9987036803,nmf,torchnmf,cpu,float32,platform_onset,analysis_window_end,3.0000000000,11.0000000000,30,110,80,step,True,False,True,actual_step_onset,False,step_R,step_r,left,R,young,True,replace_v3d_meta_prefilter,step_r,12.0000000000,9.0000000000
global_step,S01,1.0000000000,1,S01_v1.0_T1,0,24,3.0379943848,ok,1,0.9987036803,nmf,torchnmf,cpu,float32,platform_onset,analysis_window_end,3.0000000000,11.0000000000,30,110,80,step,True,False,True,actual_step_onset,False,step_R,step_r,left,R,young,True,replace_v3d_meta_prefilter,step_r,12.0000000000,9.0000000000
global_step,S01,1.0000000000,1,S01_v1.0_T1,0,25,3.0358774662,ok,1,0.9987036803,nmf,torchnmf,cpu,float32,platform_onset,analysis_window_end,3.0000000000,11.0000000000,30,110,80,step,True,False,True,actual_step_onset,False,step_R,step_r,left,R,young,True,replace_v3d_meta_prefilter,step_r,12.0000000000,9.0000000000
global_step,S01,1.0000000000,1,S01_v1.0_T1,0,26,3.0325772762,ok,1,0.9987036803,nmf,torchnmf,cpu,float32,platform_onset,analysis_window_end,3.0000000000,11.0000000000,30,110,80,step,True,False,True,actual_step_onset,False,step_R,step_r,left,R,young,True,replace_v3d_meta_prefilter,step_r,12.0000000000,9.0000000000
global_step,S01,1.0000000000,1,S01_v1.0_T1,0,27,3.0292768478,ok,1,0.9987036803,nmf,torchnmf,cpu,float32,platform_onset,analysis_window_end,3.0000000000,11.0000000000,30,110,80,step,True,False,True,actual_step_onset,False,step_R,step_r,left,R,young,True,replace_v3d_meta_prefilter,step_r,12.0000000000,9.0000000000
global_step,S01,1.0000000000,1,S01_v1.0_T1,0,28,3.0259766579,ok,1,0.9987036803,nmf,torchnmf,cpu,float32,platform_onset,analysis_window_end,3.0000000000,11.0000000000,30,110,80,step,True,False,True,actual_step_onset,False,step_R,step_r,left,R,young,True,replace_v3d_meta_prefilter,step_r,12.0000000000,9.0000000000
global_step,S01,1.0000000000,1,S01_v1.0_T1,0,29,3.0226762295,ok,1,0.9987036803,nmf,torchnmf,cpu,float32,platform_onset,analysis_window_end,3.0000000000,11.0000000000,30,110,80,step,True,False,True,actual_step_onset,False,step_R,step_r,left,R,young,True,replace_v3d_meta_prefilter,step_r,12.0000000000,9.0000000000
global_step,S01,1.0000000000,1,S01_v1.0_T1,0,30,3.0193760395,ok,1,0.9987036803,nmf,torchnmf,cpu,float32,platform_onset,analysis_window_end,3.0000000000,11.0000000000,30,110,80,step,True,False,True,actual_step_onset,False,step_R,step_r,left,R,young,True,replace_v3d_meta_prefilter,step_r,12.0000000000,9.0000000000
global_step,S01,1.0000000000,1,S01_v1.0_T1,0,31,3.0160756111,ok,1,0.9987036803,nmf,torchnmf,cpu,float32,platform_onset,analysis_window_end,3.0000000000,11.0000000000,30,110,80,step,True,False,True,actual_step_onset,False,step_R,step_r,left,R,young,True,replace_v3d_meta_prefilter,step_r,12.0000000000,9.0000000000
global_step,S01,1.0000000000,1,S01_v1.0_T1,0,32,3.0127754211,ok,1,0.9987036803,nmf,torchnmf,cpu,float32,platform_onset,analysis_window_end,3.0000000000,11.0000000000,30,110,80,step,True,False,True,actual_step_onset,False,step_R,step_r,left,R,young,True,replace_v3d_meta_prefilter,step_r,12.0000000000,9.0000000000
global_step,S01,1.0000000000,1,S01_v1.0_T1,0,33,3.0094749928,ok,1,0.9987036803,nmf,torchnmf,cpu,float32,platform_onset,analysis_window_end,3.0000000000,11.0000000000,30,110,80,step,True,False,True,actual_step_onset,False,step_R,step_r,left,R,young,True,replace_v3d_meta_prefilter,step_r,12.0000000000,9.0000000000
global_step,S01,1.0000000000,1,S01_v1.0_T1,0,34,3.0061748028,ok,1,0.9987036803,nmf,torchnmf,cpu,float32,platform_onset,analysis_window_end,3.0000000000,11.0000000000,30,110,80,step,True,False,True,actual_step_onset,False,step_R,step_r,left,R,young,True,replace_v3d_meta_prefilter,step_r,12.0000000000,9.0000000000
global_step,S01,1.0000000000,1,S01_v1.0_T1,0,35,3.0028743744,ok,1,0.9987036803,nmf,torchnmf,cpu,float32,platform_onset,analysis_window_end,3.0000000000,11.0000000000,30,110,80,step,True,False,True,actual_step_onset,False,step_R,step_r,left,R,young,True,replace_v3d_meta_prefilter,step_r,12.0000000000,9.0000000000
global_step,S01,1.0000000000,1,S01_v1.0_T1,0,36,2.9995741844,ok,1,0.9987036803,nmf,torchnmf,cpu,float32,platform_onset,analysis_window_end,3.0000000000,11.0000000000,30,110,80,step,True,False,True,actual_step_onset,False,step_R,step_r,left,R,young,True,replace_v3d_meta_prefilter,step_r,12.0000000000,9.0000000000
global_step,S01,1.0000000000,1,S01_v1.0_T1,0,37,2.9962737560,ok,1,0.9987036803,nmf,torchnmf,cpu,float32,platform_onset,analysis_window_end,3.0000000000,11.0000000000,30,110,80,step,True,False,True,actual_step_onset,False,step_R,step_r,left,R,young,True,replace_v3d_meta_prefilter,step_r,12.0000000000,9.0000000000
global_step,S01,1.0000000000,1,S01_v1.0_T1,0,38,2.9918279648,ok,1,0.9987036803,nmf,torchnmf,cpu,float32,platform_onset,analysis_window_end,3.0000000000,11.0000000000,30,110,80,step,True,False,True,actual_step_onset,False,step_R,step_r,left,R,young,True,replace_v3d_meta_prefilter,step_r,12.0000000000,9.0000000000
global_step,S01,1.0000000000,1,S01_v1.0_T1,0,39,2.9872186184,ok,1,0.9987036803,nmf,torchnmf,cpu,float32,platform_onset,analysis_window_end,3.0000000000,11.0000000000,30,110,80,step,True,False,True,actual_step_onset,False,step_R,step_r,left,R,young,True,replace_v3d_meta_prefilter,step_r,12.0000000000,9.0000000000
global_step,S01,1.0000000000,1,S01_v1.0_T1,0,40,2.9826090336,ok,1,0.9987036803,nmf,torchnmf,cpu,float32,platform_onset,analysis_window_end,3.0000000000,11.0000000000,30,110,80,step,True,False,True,actual_step_onset,False,step_R,step_r,left,R,young,True,replace_v3d_meta_prefilter,step_r,12.0000000000,9.0000000000
global_step,S01,1.0000000000,1,S01_v1.0_T1,0,41,2.9779996872,ok,1,0.9987036803,nmf,torchnmf,cpu,float32,platform_onset,analysis_window_end,3.0000000000,11.0000000000,30,110,80,step,True,False,True,actual_step_onset,False,step_R,step_r,left,R,young,True,replace_v3d_meta_prefilter,step_r,12.0000000000,9.0000000000
global_step,S01,1.0000000000,1,S01_v1.0_T1,0,42,2.9733903408,ok,1,0.9987036803,nmf,torchnmf,cpu,float32,platform_onset,analysis_window_end,3.0000000000,11.0000000000,30,110,80,step,True,False,True,actual_step_onset,False,step_R,step_r,left,R,young,True,replace_v3d_meta_prefilter,step_r,12.0000000000,9.0000000000
global_step,S01,1.0000000000,1,S01_v1.0_T1,0,43,2.9687807560,ok,1,0.9987036803,nmf,torchnmf,cpu,float32,platform_onset,analysis_window_end,3.0000000000,11.0000000000,30,110,80,step,True,False,True,actual_step_onset,False,step_R,step_r,left,R,young,True,replace_v3d_meta_prefilter,step_r,12.0000000000,9.0000000000
global_step,S01,1.0000000000,1,S01_v1.0_T1,0,44,2.9641714096,ok,1,0.9987036803,nmf,torchnmf,cpu,float32,platform_onset,analysis_window_end,3.0000000000,11.0000000000,30,110,80,step,True,False,True,actual_step_onset,False,step_R,step_r,left,R,young,True,replace_v3d_meta_prefilter,step_r,12.0000000000,9.0000000000
global_step,S01,1.0000000000,1,S01_v1.0_T1,0,45,2.9595618248,ok,1,0.9987036803,nmf,torchnmf,cpu,float32,platform_onset,analysis_window_end,3.0000000000,11.0000000000,30,110,80,step,True,False,True,actual_step_onset,False,step_R,step_r,left,R,young,True,replace_v3d_meta_prefilter,step_r,12.0000000000,9.0000000000
global_step,S01,1.0000000000,1,S01_v1.0_T1,0,46,2.9549524784,ok,1,0.9987036803,nmf,torchnmf,cpu,float32,platform_onset,analysis_window_end,3.0000000000,11.0000000000,30,110,80,step,True,False,True,actual_step_onset,False,step_R,step_r,left,R,young,True,replace_v3d_meta_prefilter,step_r,12.0000000000,9.0000000000
global_step,S01,1.0000000000,1,S01_v1.0_T1,0,47,2.9503431320,ok,1,0.9987036803,nmf,torchnmf,cpu,float32,platform_onset,analysis_window_end,3.0000000000,11.0000000000,30,110,80,step,True,False,True,actual_step_onset,False,step_R,step_r,left,R,young,True,replace_v3d_meta_prefilter,step_r,12.0000000000,9.0000000000
global_step,S01,1.0000000000,1,S01_v1.0_T1,0,48,2.9457335472,ok,1,0.9987036803,nmf,torchnmf,cpu,float32,platform_onset,analysis_window_end,3.0000000000,11.0000000000,30,110,80,step,True,False,True,actual_step_onset,False,step_R,step_r,left,R,young,True,replace_v3d_meta_prefilter,step_r,12.0000000000,9.0000000000
global_step,S01,1.0000000000,1,S01_v1.0_T1,0,49,2.9411242008,ok,1,0.9987036803,nmf,torchnmf,cpu,float32,platform_onset,analysis_window_end,3.0000000000,11.0000000000,30,110,80,step,True,False,True,actual_step_onset,False,step_R,step_r,left,R,young,True,replace_v3d_meta_prefilter,step_r,12.0000000000,9.0000000000
global_step,S01,1.0000000000,1,S01_v1.0_T1,0,50,2.9360432625,ok,1,0.9987036803,nmf,torchnmf,cpu,float32,platform_onset,analysis_window_end,3.0000000000,11.0000000000,30,110,80,step,True,False,True,actual_step_onset,False,step_R,step_r,left,R,young,True,replace_v3d_meta_prefilter,step_r,12.0000000000,9.0000000000
global_step,S01,1.0000000000,1,S01_v1.0_T1,0,51,2.9304909706,ok,1,0.9987036803,nmf,torchnmf,cpu,float32,platform_onset,analysis_window_end,3.0000000000,11.0000000000,30,110,80,step,True,False,True,actual_step_onset,False,step_R,step_r,left,R,young,True,replace_v3d_meta_prefilter,step_r,12.0000000000,9.0000000000
global_step,S01,1.0000000000,1,S01_v1.0_T1,0,52,2.9249384403,ok,1,0.9987036803,nmf,torchnmf,cpu,float32,platform_onset,analysis_window_end,3.0000000000,11.0000000000,30,110,80,step,True,False,True,actual_step_onset,False,step_R,step_r,left,R,young,True,replace_v3d_meta_prefilter,step_r,12.0000000000,9.0000000000
global_step,S01,1.0000000000,1,S01_v1.0_T1,0,53,2.9193861485,ok,1,0.9987036803,nmf,torchnmf,cpu,float32,platform_onset,analysis_window_end,3.0000000000,11.0000000000,30,110,80,step,True,False,True,actual_step_onset,False,step_R,step_r,left,R,young,True,replace_v3d_meta_prefilter,step_r,12.0000000000,9.0000000000
global_step,S01,1.0000000000,1,S01_v1.0_T1,0,54,2.9138338566,ok,1,0.9987036803,nmf,torchnmf,cpu,float32,platform_onset,analysis_window_end,3.0000000000,11.0000000000,30,110,80,step,True,False,True,actual_step_onset,False,step_R,step_r,left,R,young,True,replace_v3d_meta_prefilter,step_r,12.0000000000,9.0000000000
global_step,S01,1.0000000000,1,S01_v1.0_T1,0,55,2.9082813263,ok,1,0.9987036803,nmf,torchnmf,cpu,float32,platform_onset,analysis_window_end,3.0000000000,11.0000000000,30,110,80,step,True,False,True,actual_step_onset,False,step_R,step_r,left,R,young,True,replace_v3d_meta_prefilter,step_r,12.0000000000,9.0000000000
global_step,S01,1.0000000000,1,S01_v1.0_T1,0,56,2.9027290344,ok,1,0.9987036803,nmf,torchnmf,cpu,float32,platform_onset,analysis_window_end,3.0000000000,11.0000000000,30,110,80,step,True,False,True,actual_step_onset,False,step_R,step_r,left,R,young,True,replace_v3d_meta_prefilter,step_r,12.0000000000,9.0000000000
global_step,S01,1.0000000000,1,S01_v1.0_T1,0,57,2.8971767426,ok,1,0.9987036803,nmf,torchnmf,cpu,float32,platform_onset,analysis_window_end,3.0000000000,11.0000000000,30,110,80,step,True,False,True,actual_step_onset,False,step_R,step_r,left,R,young,True,replace_v3d_meta_prefilter,step_r,12.0000000000,9.0000000000
global_step,S01,1.0000000000,1,S01_v1.0_T1,0,58,2.8916242123,ok,1,0.9987036803,nmf,torchnmf,cpu,float32,platform_onset,analysis_window_end,3.0000000000,11.0000000000,30,110,80,step,True,False,True,actual_step_onset,False,step_R,step_r,left,R,young,True,replace_v3d_meta_prefilter,step_r,12.0000000000,9.0000000000
global_step,S01,1.0000000000,1,S01_v1.0_T1,0,59,2.8860719204,ok,1,0.9987036803,nmf,torchnmf,cpu,float32,platform_onset,analysis_window_end,3.0000000000,11.0000000000,30,110,80,step,True,False,True,actual_step_onset,False,step_R,step_r,left,R,young,True,replace_v3d_meta_prefilter,step_r,12.0000000000,9.0000000000
global_step,S01,1.0000000000,1,S01_v1.0_T1,0,60,2.8805196285,ok,1,0.9987036803,nmf,torchnmf,cpu,float32,platform_onset,analysis_window_end,3.0000000000,11.0000000000,30,110,80,step,True,False,True,actual_step_onset,False,step_R,step_r,left,R,young,True,replace_v3d_meta_prefilter,step_r,12.0000000000,9.0000000000
global_step,S01,1.0000000000,1,S01_v1.0_T1,0,61,2.8749670982,ok,1,0.9987036803,nmf,torchnmf,cpu,float32,platform_onset,analysis_window_end,3.0000000000,11.0000000000,30,110,80,step,True,False,True,actual_step_onset,False,step_R,step_r,left,R,young,True,replace_v3d_meta_prefilter,step_r,12.0000000000,9.0000000000
global_step,S01,1.0000000000,1,S01_v1.0_T1,0,62,2.8693513870,ok,1,0.9987036803,nmf,torchnmf,cpu,float32,platform_onset,analysis_window_end,3.0000000000,11.0000000000,30,110,80,step,True,False,True,actual_step_onset,False,step_R,step_r,left,R,young,True,replace_v3d_meta_prefilter,step_r,12.0000000000,9.0000000000
global_step,S01,1.0000000000,1,S01_v1.0_T1,0,63,2.8632922173,ok,1,0.9987036803,nmf,torchnmf,cpu,float32,platform_onset,analysis_window_end,3.0000000000,11.0000000000,30,110,80,step,True,False,True,actual_step_onset,False,step_R,step_r,left,R,young,True,replace_v3d_meta_prefilter,step_r,12.0000000000,9.0000000000
global_step,S01,1.0000000000,1,S01_v1.0_T1,0,64,2.8572328091,ok,1,0.9987036803,nmf,torchnmf,cpu,float32,platform_onset,analysis_window_end,3.0000000000,11.0000000000,30,110,80,step,True,False,True,actual_step_onset,False,step_R,step_r,left,R,young,True,replace_v3d_meta_prefilter,step_r,12.0000000000,9.0000000000
global_step,S01,1.0000000000,1,S01_v1.0_T1,0,65,2.8511736393,ok,1,0.9987036803,nmf,torchnmf,cpu,float32,platform_onset,analysis_window_end,3.0000000000,11.0000000000,30,110,80,step,True,False,True,actual_step_onset,False,step_R,step_r,left,R,young,True,replace_v3d_meta_prefilter,step_r,12.0000000000,9.0000000000
global_step,S01,1.0000000000,1,S01_v1.0_T1,0,66,2.8451144695,ok,1,0.9987036803,nmf,torchnmf,cpu,float32,platform_onset,analysis_window_end,3.0000000000,11.0000000000,30,110,80,step,True,False,True,actual_step_onset,False,step_R,step_r,left,R,young,True,replace_v3d_meta_prefilter,step_r,12.0000000000,9.0000000000
global_step,S01,1.0000000000,1,S01_v1.0_T1,0,67,2.8390550613,ok,1,0.9987036803,nmf,torchnmf,cpu,float32,platform_onset,analysis_window_end,3.0000000000,11.0000000000,30,110,80,step,True,False,True,actual_step_onset,False,step_R,step_r,left,R,young,True,replace_v3d_meta_prefilter,step_r,12.0000000000,9.0000000000
global_step,S01,1.0000000000,1,S01_v1.0_T1,0,68,2.8329958916,ok,1,0.9987036803,nmf,torchnmf,cpu,float32,platform_onset,analysis_window_end,3.0000000000,11.0000000000,30,110,80,step,True,False,True,actual_step_onset,False,step_R,step_r,left,R,young,True,replace_v3d_meta_prefilter,step_r,12.0000000000,9.0000000000
global_step,S01,1.0000000000,1,S01_v1.0_T1,0,69,2.8269367218,ok,1,0.9987036803,nmf,torchnmf,cpu,float32,platform_onset,analysis_window_end,3.0000000000,11.0000000000,30,110,80,step,True,False,True,actual_step_onset,False,step_R,step_r,left,R,young,True,replace_v3d_meta_prefilter,step_r,12.0000000000,9.0000000000
global_step,S01,1.0000000000,1,S01_v1.0_T1,0,70,2.8208773136,ok,1,0.9987036803,nmf,torchnmf,cpu,float32,platform_onset,analysis_window_end,3.0000000000,11.0000000000,30,110,80,step,True,False,True,actual_step_onset,False,step_R,step_r,left,R,young,True,replace_v3d_meta_prefilter,step_r,12.0000000000,9.0000000000
global_step,S01,1.0000000000,1,S01_v1.0_T1,0,71,2.8148181438,ok,1,0.9987036803,nmf,torchnmf,cpu,float32,platform_onset,analysis_window_end,3.0000000000,11.0000000000,30,110,80,step,True,False,True,actual_step_onset,False,step_R,step_r,left,R,young,True,replace_v3d_meta_prefilter,step_r,12.0000000000,9.0000000000
global_step,S01,1.0000000000,1,S01_v1.0_T1,0,72,2.8087587357,ok,1,0.9987036803,nmf,torchnmf,cpu,float32,platform_onset,analysis_window_end,3.0000000000,11.0000000000,30,110,80,step,True,False,True,actual_step_onset,False,step_R,step_r,left,R,young,True,replace_v3d_meta_prefilter,step_r,12.0000000000,9.0000000000
global_step,S01,1.0000000000,1,S01_v1.0_T1,0,73,2.8026995659,ok,1,0.9987036803,nmf,torchnmf,cpu,float32,platform_onset,analysis_window_end,3.0000000000,11.0000000000,30,110,80,step,True,False,True,actual_step_onset,False,step_R,step_r,left,R,young,True,replace_v3d_meta_prefilter,step_r,12.0000000000,9.0000000000
global_step,S01,1.0000000000,1,S01_v1.0_T1,0,74,2.7966403961,ok,1,0.9987036803,nmf,torchnmf,cpu,float32,platform_onset,analysis_window_end,3.0000000000,11.0000000000,30,110,80,step,True,False,True,actual_step_onset,False,step_R,step_r,left,R,young,True,replace_v3d_meta_prefilter,step_r,12.0000000000,9.0000000000
global_step,S01,1.0000000000,1,S01_v1.0_T1,0,75,2.7905561924,ok,1,0.9987036803,nmf,torchnmf,cpu,float32,platform_onset,analysis_window_end,3.0000000000,11.0000000000,30,110,80,step,True,False,True,actual_step_onset,False,step_R,step_r,left,R,young,True,replace_v3d_meta_prefilter,step_r,12.0000000000,9.0000000000
global_step,S01,1.0000000000,1,S01_v1.0_T1,0,76,2.7844636440,ok,1,0.9987036803,nmf,torchnmf,cpu,float32,platform_onset,analysis_window_end,3.0000000000,11.0000000000,30,110,80,step,True,False,True,actual_step_onset,False,step_R,step_r,left,R,young,True,replace_v3d_meta_prefilter,step_r,12.0000000000,9.0000000000
global_step,S01,1.0000000000,1,S01_v1.0_T1,0,77,2.7783710957,ok,1,0.9987036803,nmf,torchnmf,cpu,float32,platform_onset,analysis_window_end,3.0000000000,11.0000000000,30,110,80,step,True,False,True,actual_step_onset,False,step_R,step_r,left,R,young,True,replace_v3d_meta_prefilter,step_r,12.0000000000,9.0000000000
global_step,S01,1.0000000000,1,S01_v1.0_T1,0,78,2.7722785473,ok,1,0.9987036803,nmf,torchnmf,cpu,float32,platform_onset,analysis_window_end,3.0000000000,11.0000000000,30,110,80,step,True,False,True,actual_step_onset,False,step_R,step_r,left,R,young,True,replace_v3d_meta_prefilter,step_r,12.0000000000,9.0000000000
global_step,S01,1.0000000000,1,S01_v1.0_T1,0,79,2.7661859989,ok,1,0.9987036803,nmf,torchnmf,cpu,float32,platform_onset,analysis_window_end,3.0000000000,11.0000000000,30,110,80,step,True,False,True,actual_step_onset,False,step_R,step_r,left,R,young,True,replace_v3d_meta_prefilter,step_r,12.0000000000,9.0000000000
global_step,S01,1.0000000000,1,S01_v1.0_T1,0,80,2.7600934505,ok,1,0.9987036803,nmf,torchnmf,cpu,float32,platform_onset,analysis_window_end,3.0000000000,11.0000000000,30,110,80,step,True,False,True,actual_step_onset,False,step_R,step_r,left,R,young,True,replace_v3d_meta_prefilter,step_r,12.0000000000,9.0000000000
global_step,S01,1.0000000000,1,S01_v1.0_T1,0,81,2.7540009022,ok,1,0.9987036803,nmf,torchnmf,cpu,float32,platform_onset,analysis_window_end,3.0000000000,11.0000000000,30,110,80,step,True,False,True,actual_step_onset,False,step_R,step_r,left,R,young,True,replace_v3d_meta_prefilter,step_r,12.0000000000,9.0000000000
global_step,S01,1.0000000000,1,S01_v1.0_T1,0,82,2.7479083538,ok,1,0.9987036803,nmf,torchnmf,cpu,float32,platform_onset,analysis_window_end,3.0000000000,11.0000000000,30,110,80,step,True,False,True,actual_step_onset,False,step_R,step_r,left,R,young,True,replace_v3d_meta_prefilter,step_r,12.0000000000,9.0000000000
global_step,S01,1.0000000000,1,S01_v1.0_T1,0,83,2.7418158054,ok,1,0.9987036803,nmf,torchnmf,cpu,float32,platform_onset,analysis_window_end,3.0000000000,11.0000000000,30,110,80,step,True,False,True,actual_step_onset,False,step_R,step_r,left,R,young,True,replace_v3d_meta_prefilter,step_r,12.0000000000,9.0000000000
global_step,S01,1.0000000000,1,S01_v1.0_T1,0,84,2.7357232571,ok,1,0.9987036803,nmf,torchnmf,cpu,float32,platform_onset,analysis_window_end,3.0000000000,11.0000000000,30,110,80,step,True,False,True,actual_step_onset,False,step_R,step_r,left,R,young,True,replace_v3d_meta_prefilter,step_r,12.0000000000,9.0000000000
global_step,S01,1.0000000000,1,S01_v1.0_T1,0,85,2.7296307087,ok,1,0.9987036803,nmf,torchnmf,cpu,float32,platform_onset,analysis_window_end,3.0000000000,11.0000000000,30,110,80,step,True,False,True,actual_step_onset,False,step_R,step_r,left,R,young,True,replace_v3d_meta_prefilter,step_r,12.0000000000,9.0000000000
global_step,S01,1.0000000000,1,S01_v1.0_T1,0,86,2.7235381603,ok,1,0.9987036803,nmf,torchnmf,cpu,float32,platform_onset,analysis_window_end,3.0000000000,11.0000000000,30,110,80,step,True,False,True,actual_step_onset,False,step_R,step_r,left,R,young,True,replace_v3d_meta_prefilter,step_r,12.0000000000,9.0000000000
global_step,S01,1.0000000000,1,S01_v1.0_T1,0,87,2.7176117897,ok,1,0.9987036803,nmf,torchnmf,cpu,float32,platform_onset,analysis_window_end,3.0000000000,11.0000000000,30,110,80,step,True,False,True,actual_step_onset,False,step_R,step_r,left,R,young,True,replace_v3d_meta_prefilter,step_r,12.0000000000,9.0000000000
global_step,S01,1.0000000000,1,S01_v1.0_T1,0,88,2.7119619846,ok,1,0.9987036803,nmf,torchnmf,cpu,float32,platform_onset,analysis_window_end,3.0000000000,11.0000000000,30,110,80,step,True,False,True,actual_step_onset,False,step_R,step_r,left,R,young,True,replace_v3d_meta_prefilter,step_r,12.0000000000,9.0000000000
global_step,S01,1.0000000000,1,S01_v1.0_T1,0,89,2.7063121796,ok,1,0.9987036803,nmf,torchnmf,cpu,float32,platform_onset,analysis_window_end,3.0000000000,11.0000000000,30,110,80,step,True,False,True,actual_step_onset,False,step_R,step_r,left,R,young,True,replace_v3d_meta_prefilter,step_r,12.0000000000,9.0000000000
global_step,S01,1.0000000000,1,S01_v1.0_T1,0,90,2.7006623745,ok,1,0.9987036803,nmf,torchnmf,cpu,float32,platform_onset,analysis_window_end,3.0000000000,11.0000000000,30,110,80,step,True,False,True,actual_step_onset,False,step_R,step_r,left,R,young,True,replace_v3d_meta_prefilter,step_r,12.0000000000,9.0000000000
global_step,S01,1.0000000000,1,S01_v1.0_T1,0,91,2.6950125694,ok,1,0.9987036803,nmf,torchnmf,cpu,float32,platform_onset,analysis_window_end,3.0000000000,11.0000000000,30,110,80,step,True,False,True,actual_step_onset,False,step_R,step_r,left,R,young,True,replace_v3d_meta_prefilter,step_r,12.0000000000,9.0000000000
global_step,S01,1.0000000000,1,S01_v1.0_T1,0,92,2.6893630028,ok,1,0.9987036803,nmf,torchnmf,cpu,float32,platform_onset,analysis_window_end,3.0000000000,11.0000000000,30,110,80,step,True,False,True,actual_step_onset,False,step_R,step_r,left,R,young,True,replace_v3d_meta_prefilter,step_r,12.0000000000,9.0000000000
global_step,S01,1.0000000000,1,S01_v1.0_T1,0,93,2.6837131977,ok,1,0.9987036803,nmf,torchnmf,cpu,float32,platform_onset,analysis_window_end,3.0000000000,11.0000000000,30,110,80,step,True,False,True,actual_step_onset,False,step_R,step_r,left,R,young,True,replace_v3d_meta_prefilter,step_r,12.0000000000,9.0000000000
global_step,S01,1.0000000000,1,S01_v1.0_T1,0,94,2.6780633926,ok,1,0.9987036803,nmf,torchnmf,cpu,float32,platform_onset,analysis_window_end,3.0000000000,11.0000000000,30,110,80,step,True,False,True,actual_step_onset,False,step_R,step_r,left,R,young,True,replace_v3d_meta_prefilter,step_r,12.0000000000,9.0000000000
global_step,S01,1.0000000000,1,S01_v1.0_T1,0,95,2.6724135876,ok,1,0.9987036803,nmf,torchnmf,cpu,float32,platform_onset,analysis_window_end,3.0000000000,11.0000000000,30,110,80,step,True,False,True,actual_step_onset,False,step_R,step_r,left,R,young,True,replace_v3d_meta_prefilter,step_r,12.0000000000,9.0000000000
global_step,S01,1.0000000000,1,S01_v1.0_T1,0,96,2.6667637825,ok,1,0.9987036803,nmf,torchnmf,cpu,float32,platform_onset,analysis_window_end,3.0000000000,11.0000000000,30,110,80,step,True,False,True,actual_step_onset,False,step_R,step_r,left,R,young,True,replace_v3d_meta_prefilter,step_r,12.0000000000,9.0000000000
global_step,S01,1.0000000000,1,S01_v1.0_T1,0,97,2.6611142159,ok,1,0.9987036803,nmf,torchnmf,cpu,float32,platform_onset,analysis_window_end,3.0000000000,11.0000000000,30,110,80,step,True,False,True,actual_step_onset,False,step_R,step_r,left,R,young,True,replace_v3d_meta_prefilter,step_r,12.0000000000,9.0000000000
global_step,S01,1.0000000000,1,S01_v1.0_T1,0,98,2.6554644108,ok,1,0.9987036803,nmf,torchnmf,cpu,float32,platform_onset,analysis_window_end,3.0000000000,11.0000000000,30,110,80,step,True,False,True,actual_step_onset,False,step_R,step_r,left,R,young,True,replace_v3d_meta_prefilter,step_r,12.0000000000,9.0000000000
global_step,S01,1.0000000000,1,S01_v1.0_T1,0,99,2.6498146057,ok,1,0.9987036803,nmf,torchnmf,cpu,float32,platform_onset,analysis_window_end,3.0000000000,11.0000000000,30,110,80,step,True,False,True,actual_step_onset,False,step_R,step_r,left,R,young,True,replace_v3d_meta_prefilter,step_r,12.0000000000,9.0000000000
global_step,S01,1.0000000000,2,S01_v1.0_T2,0,0,3.4922909737,ok,1,0.9983714124,nmf,torchnmf,cpu,float32,platform_onset,analysis_window_end,3.0000000000,13.0000000000,30,130,100,step,True,False,True,actual_step_onset,False,step_R,step_r,left,R,young,True,replace_v3d_meta_prefilter,step_r,12.0000000000,9.0000000000
global_step,S01,1.0000000000,2,S01_v1.0_T2,0,1,3.4923005104,ok,1,0.9983714124,nmf,torchnmf,cpu,float32,platform_onset,analysis_window_end,3.0000000000,13.0000000000,30,130,100,step,True,False,True,actual_step_onset,False,step_R,step_r,left,R,young,True,replace_v3d_meta_prefilter,step_r,12.0000000000,9.0000000000
global_step,S01,1.0000000000,2,S01_v1.0_T2,0,2,3.4923102856,ok,1,0.9983714124,nmf,torchnmf,cpu,float32,platform_onset,analysis_window_end,3.0000000000,13.0000000000,30,130,100,step,True,False,True,actual_step_onset,False,step_R,step_r,left,R,young,True,replace_v3d_meta_prefilter,step_r,12.0000000000,9.0000000000
global_step,S01,1.0000000000,2,S01_v1.0_T2,0,3,3.4923198223,ok,1,0.9983714124,nmf,torchnmf,cpu,float32,platform_onset,analysis_window_end,3.0000000000,13.0000000000,30,130,100,step,True,False,True,actual_step_onset,False,step_R,step_r,left,R,young,True,replace_v3d_meta_prefilter,step_r,12.0000000000,9.0000000000
global_step,S01,1.0000000000,2,S01_v1.0_T2,0,4,3.4923295975,ok,1,0.9983714124,nmf,torchnmf,cpu,float32,platform_onset,analysis_window_end,3.0000000000,13.0000000000,30,130,100,step,True,False,True,actual_step_onset,False,step_R,step_r,left,R,young,True,replace_v3d_meta_prefilter,step_r,12.0000000000,9.0000000000
global_step,S01,1.0000000000,2,S01_v1.0_T2,0,5,3.4923391342,ok,1,0.9983714124,nmf,torchnmf,cpu,float32,platform_onset,analysis_window_end,3.0000000000,13.0000000000,30,130,100,step,True,False,True,actual_step_onset,False,step_R,step_r,left,R,young,True,replace_v3d_meta_prefilter,step_r,12.0000000000,9.0000000000
global_step,S01,1.0000000000,2,S01_v1.0_T2,0,6,3.4923486710,ok,1,0.9983714124,nmf,torchnmf,cpu,float32,platform_onset,analysis_window_end,3.0000000000,13.0000000000,30,130,100,step,True,False,True,actual_step_onset,False,step_R,step_r,left,R,young,True,replace_v3d_meta_prefilter,step_r,12.0000000000,9.0000000000
global_step,S01,1.0000000000,2,S01_v1.0_T2,0,7,3.4923584461,ok,1,0.9983714124,nmf,torchnmf,cpu,float32,platform_onset,analysis_window_end,3.0000000000,13.0000000000,30,130,100,step,True,False,True,actual_step_onset,False,step_R,step_r,left,R,young,True,replace_v3d_meta_prefilter,step_r,12.0000000000,9.0000000000
global_step,S01,1.0000000000,2,S01_v1.0_T2,0,8,3.4923679829,ok,1,0.9983714124,nmf,torchnmf,cpu,float32,platform_onset,analysis_window_end,3.0000000000,13.0000000000,30,130,100,step,True,False,True,actual_step_onset,False,step_R,step_r,left,R,young,True,replace_v3d_meta_prefilter,step_r,12.0000000000,9.0000000000
global_step,S01,1.0000000000,2,S01_v1.0_T2,0,9,3.4923777580,ok,1,0.9983714124,nmf,torchnmf,cpu,float32,platform_onset,analysis_window_end,3.0000000000,13.0000000000,30,130,100,step,True,False,True,actual_step_onset,False,step_R,step_r,left,R,young,True,replace_v3d_meta_prefilter,step_r,12.0000000000,9.0000000000
global_step,S01,1.0000000000,2,S01_v1.0_T2,0,10,3.4921715260,ok,1,0.9983714124,nmf,torchnmf,cpu,float32,platform_onset,analysis_window_end,3.0000000000,13.0000000000,30,130,100,step,True,False,True,actual_step_onset,False,step_R,step_r,left,R,young,True,replace_v3d_meta_prefilter,step_r,12.0000000000,9.0000000000
global_step,S01,1.0000000000,2,S01_v1.0_T2,0,11,3.4900236130,ok,1,0.9983714124,nmf,torchnmf,cpu,float32,platform_onset,analysis_window_end,3.0000000000,13.0000000000,30,130,100,step,True,False,True,actual_step_onset,False,step_R,step_r,left,R,young,True,replace_v3d_meta_prefilter,step_r,12.0000000000,9.0000000000
global_step,S01,1.0000000000,2,S01_v1.0_T2,0,12,3.4878759384,ok,1,0.9983714124,nmf,torchnmf,cpu,float32,platform_onset,analysis_window_end,3.0000000000,13.0000000000,30,130,100,step,True,False,True,actual_step_onset,False,step_R,step_r,left,R,young,True,replace_v3d_meta_prefilter,step_r,12.0000000000,9.0000000000
global_step,S01,1.0000000000,2,S01_v1.0_T2,0,13,3.4857280254,ok,1,0.9983714124,nmf,torchnmf,cpu,float32,platform_onset,analysis_window_end,3.0000000000,13.0000000000,30,130,100,step,True,False,True,actual_step_onset,False,step_R,step_r,left,R,young,True,replace_v3d_meta_prefilter,step_r,12.0000000000,9.0000000000
global_step,S01,1.0000000000,2,S01_v1.0_T2,0,14,3.4835801125,ok,1,0.9983714124,nmf,torchnmf,cpu,float32,platform_onset,analysis_window_end,3.0000000000,13.0000000000,30,130,100,step,True,False,True,actual_step_onset,False,step_R,step_r,left,R,young,True,replace_v3d_meta_prefilter,step_r,12.0000000000,9.0000000000
global_step,S01,1.0000000000,2,S01_v1.0_T2,0,15,3.4814324379,ok,1,0.9983714124,nmf,torchnmf,cpu,float32,platform_onset,analysis_window_end,3.0000000000,13.0000000000,30,130,100,step,True,False,True,actual_step_onset,False,step_R,step_r,left,R,young,True,replace_v3d_meta_prefilter,step_r,12.0000000000,9.0000000000
global_step,S01,1.0000000000,2,S01_v1.0_T2,0,16,3.4792845249,ok,1,0.9983714124,nmf,torchnmf,cpu,float32,platform_onset,analysis_window_end,3.0000000000,13.0000000000,30,130,100,step,True,False,True,actual_step_onset,False,step_R,step_r,left,R,young,True,replace_v3d_meta_prefilter,step_r,12.0000000000,9.0000000000
global_step,S01,1.0000000000,2,S01_v1.0_T2,0,17,3.4771366119,ok,1,0.9983714124,nmf,torchnmf,cpu,float32,platform_onset,analysis_window_end,3.0000000000,13.0000000000,30,130,100,step,True,False,True,actual_step_onset,False,step_R,step_r,left,R,young,True,replace_v3d_meta_prefilter,step_r,12.0000000000,9.0000000000
global_step,S01,1.0000000000,2,S01_v1.0_T2,0,18,3.4749889374,ok,1,0.9983714124,nmf,torchnmf,cpu,float32,platform_onset,analysis_window_end,3.0000000000,13.0000000000,30,130,100,step,True,False,True,actual_step_onset,False,step_R,step_r,left,R,young,True,replace_v3d_meta_prefilter,step_r,12.0000000000,9.0000000000
global_step,S01,1.0000000000,2,S01_v1.0_T2,0,19,3.4728410244,ok,1,0.9983714124,nmf,torchnmf,cpu,float32,platform_onset,analysis_window_end,3.0000000000,13.0000000000,30,130,100,step,True,False,True,actual_step_onset,False,step_R,step_r,left,R,young,True,replace_v3d_meta_prefilter,step_r,12.0000000000,9.0000000000
global_step,S01,1.0000000000,2,S01_v1.0_T2,0,20,3.4702994823,ok,1,0.9983714124,nmf,torchnmf,cpu,float32,platform_onset,analysis_window_end,3.0000000000,13.0000000000,30,130,100,step,True,False,True,actual_step_onset,False,step_R,step_r,left,R,young,True,replace_v3d_meta_prefilter,step_r,12.0000000000,9.0000000000
global_step,S01,1.0000000000,2,S01_v1.0_T2,0,21,3.4661836624,ok,1,0.9983714124,nmf,torchnmf,cpu,float32,platform_onset,analysis_window_end,3.0000000000,13.0000000000,30,130,100,step,True,False,True,actual_step_onset,False,step_R,step_r,left,R,young,True,replace_v3d_meta_prefilter,step_r,12.0000000000,9.0000000000
global_step,S01,1.0000000000,2,S01_v1.0_T2,0,22,3.4620680809,ok,1,0.9983714124,nmf,torchnmf,cpu,float32,platform_onset,analysis_window_end,3.0000000000,13.0000000000,30,130,100,step,True,False,True,actual_step_onset,False,step_R,step_r,left,R,young,True,replace_v3d_meta_prefilter,step_r,12.0000000000,9.0000000000
global_step,S01,1.0000000000,2,S01_v1.0_T2,0,23,3.4579522610,ok,1,0.9983714124,nmf,torchnmf,cpu,float32,platform_onset,analysis_window_end,3.0000000000,13.0000000000,30,130,100,step,True,False,True,actual_step_onset,False,step_R,step_r,left,R,young,True,replace_v3d_meta_prefilter,step_r,12.0000000000,9.0000000000
global_step,S01,1.0000000000,2,S01_v1.0_T2,0,24,3.4538364410,ok,1,0.9983714124,nmf,torchnmf,cpu,float32,platform_onset,analysis_window_end,3.0000000000,13.0000000000,30,130,100,step,True,False,True,actual_step_onset,False,step_R,step_r,left,R,young,True,replace_v3d_meta_prefilter,step_r,12.0000000000,9.0000000000
global_step,S01,1.0000000000,2,S01_v1.0_T2,0,25,3.4497206211,ok,1,0.9983714124,nmf,torchnmf,cpu,float32,platform_onset,analysis_window_end,3.0000000000,13.0000000000,30,130,100,step,True,False,True,actual_step_onset,False,step_R,step_r,left,R,young,True,replace_v3d_meta_prefilter,step_r,12.0000000000,9.0000000000
global_step,S01,1.0000000000,2,S01_v1.0_T2,0,26,3.4456048012,ok,1,0.9983714124,nmf,torchnmf,cpu,float32,platform_onset,analysis_window_end,3.0000000000,13.0000000000,30,130,100,step,True,False,True,actual_step_onset,False,step_R,step_r,left,R,young,True,replace_v3d_meta_prefilter,step_r,12.0000000000,9.0000000000
global_step,S01,1.0000000000,2,S01_v1.0_T2,0,27,3.4414889812,ok,1,0.9983714124,nmf,torchnmf,cpu,float32,platform_onset,analysis_window_end,3.0000000000,13.0000000000,30,130,100,step,True,False,True,actual_step_onset,False,step_R,step_r,left,R,young,True,replace_v3d_meta_prefilter,step_r,12.0000000000,9.0000000000
global_step,S01,1.0000000000,2,S01_v1.0_T2,0,28,3.4373731613,ok,1,0.9983714124,nmf,torchnmf,cpu,float32,platform_onset,analysis_window_end,3.0000000000,13.0000000000,30,130,100,step,True,False,True,actual_step_onset,False,step_R,step_r,left,R,young,True,replace_v3d_meta_prefilter,step_r,12.0000000000,9.0000000000
global_step,S01,1.0000000000,2,S01_v1.0_T2,0,29,3.4332573414,ok,1,0.9983714124,nmf,torchnmf,cpu,float32,platform_onset,analysis_window_end,3.0000000000,13.0000000000,30,130,100,step,True,False,True,actual_step_onset,False,step_R,step_r,left,R,young,True,replace_v3d_meta_prefilter,step_r,12.0000000000,9.0000000000
global_step,S01,1.0000000000,2,S01_v1.0_T2,0,30,3.4286518097,ok,1,0.9983714124,nmf,torchnmf,cpu,float32,platform_onset,analysis_window_end,3.0000000000,13.0000000000,30,130,100,step,True,False,True,actual_step_onset,False,step_R,step_r,left,R,young,True,replace_v3d_meta_prefilter,step_r,12.0000000000,9.0000000000
global_step,S01,1.0000000000,2,S01_v1.0_T2,0,31,3.4229032993,ok,1,0.9983714124,nmf,torchnmf,cpu,float32,platform_onset,analysis_window_end,3.0000000000,13.0000000000,30,130,100,step,True,False,True,actual_step_onset,False,step_R,step_r,left,R,young,True,replace_v3d_meta_prefilter,step_r,12.0000000000,9.0000000000
global_step,S01,1.0000000000,2,S01_v1.0_T2,0,32,3.4171550274,ok,1,0.9983714124,nmf,torchnmf,cpu,float32,platform_onset,analysis_window_end,3.0000000000,13.0000000000,30,130,100,step,True,False,True,actual_step_onset,False,step_R,step_r,left,R,young,True,replace_v3d_meta_prefilter,step_r,12.0000000000,9.0000000000
global_step,S01,1.0000000000,2,S01_v1.0_T2,0,33,3.4114067554,ok,1,0.9983714124,nmf,torchnmf,cpu,float32,platform_onset,analysis_window_end,3.0000000000,13.0000000000,30,130,100,step,True,False,True,actual_step_onset,False,step_R,step_r,left,R,young,True,replace_v3d_meta_prefilter,step_r,12.0000000000,9.0000000000
global_step,S01,1.0000000000,2,S01_v1.0_T2,0,34,3.4056582451,ok,1,0.9983714124,nmf,torchnmf,cpu,float32,platform_onset,analysis_window_end,3.0000000000,13.0000000000,30,130,100,step,True,False,True,actual_step_onset,False,step_R,step_r,left,R,young,True,replace_v3d_meta_prefilter,step_r,12.0000000000,9.0000000000
global_step,S01,1.0000000000,2,S01_v1.0_T2,0,35,3.3999099731,ok,1,0.9983714124,nmf,torchnmf,cpu,float32,platform_onset,analysis_window_end,3.0000000000,13.0000000000,30,130,100,step,True,False,True,actual_step_onset,False,step_R,step_r,left,R,young,True,replace_v3d_meta_prefilter,step_r,12.0000000000,9.0000000000
global_step,S01,1.0000000000,2,S01_v1.0_T2,0,36,3.3941614628,ok,1,0.9983714124,nmf,torchnmf,cpu,float32,platform_onset,analysis_window_end,3.0000000000,13.0000000000,30,130,100,step,True,False,True,actual_step_onset,False,step_R,step_r,left,R,young,True,replace_v3d_meta_prefilter,step_r,12.0000000000,9.0000000000
global_step,S01,1.0000000000,2,S01_v1.0_T2,0,37,3.3884131908,ok,1,0.9983714124,nmf,torchnmf,cpu,float32,platform_onset,analysis_window_end,3.0000000000,13.0000000000,30,130,100,step,True,False,True,actual_step_onset,False,step_R,step_r,left,R,young,True,replace_v3d_meta_prefilter,step_r,12.0000000000,9.0000000000
global_step,S01,1.0000000000,2,S01_v1.0_T2,0,38,3.3826649189,ok,1,0.9983714124,nmf,torchnmf,cpu,float32,platform_onset,analysis_window_end,3.0000000000,13.0000000000,30,130,100,step,True,False,True,actual_step_onset,False,step_R,step_r,left,R,young,True,replace_v3d_meta_prefilter,step_r,12.0000000000,9.0000000000
global_step,S01,1.0000000000,2,S01_v1.0_T2,0,39,3.3769164085,ok,1,0.9983714124,nmf,torchnmf,cpu,float32,platform_onset,analysis_window_end,3.0000000000,13.0000000000,30,130,100,step,True,False,True,actual_step_onset,False,step_R,step_r,left,R,young,True,replace_v3d_meta_prefilter,step_r,12.0000000000,9.0000000000
global_step,S01,1.0000000000,2,S01_v1.0_T2,0,40,3.3706977367,ok,1,0.9983714124,nmf,torchnmf,cpu,float32,platform_onset,analysis_window_end,3.0000000000,13.0000000000,30,130,100,step,True,False,True,actual_step_onset,False,step_R,step_r,left,R,young,True,replace_v3d_meta_prefilter,step_r,12.0000000000,9.0000000000
global_step,S01,1.0000000000,2,S01_v1.0_T2,0,41,3.3637733459,ok,1,0.9983714124,nmf,torchnmf,cpu,float32,platform_onset,analysis_window_end,3.0000000000,13.0000000000,30,130,100,step,True,False,True,actual_step_onset,False,step_R,step_r,left,R,young,True,replace_v3d_meta_prefilter,step_r,12.0000000000,9.0000000000
global_step,S01,1.0000000000,2,S01_v1.0_T2,0,42,3.3568489552,ok,1,0.9983714124,nmf,torchnmf,cpu,float32,platform_onset,analysis_window_end,3.0000000000,13.0000000000,30,130,100,step,True,False,True,actual_step_onset,False,step_R,step_r,left,R,young,True,replace_v3d_meta_prefilter,step_r,12.0000000000,9.0000000000
global_step,S01,1.0000000000,2,S01_v1.0_T2,0,43,3.3499248028,ok,1,0.9983714124,nmf,torchnmf,cpu,float32,platform_onset,analysis_window_end,3.0000000000,13.0000000000,30,130,100,step,True,False,True,actual_step_onset,False,step_R,step_r,left,R,young,True,replace_v3d_meta_prefilter,step_r,12.0000000000,9.0000000000
global_step,S01,1.0000000000,2,S01_v1.0_T2,0,44,3.3430004120,ok,1,0.9983714124,nmf,torchnmf,cpu,float32,platform_onset,analysis_window_end,3.0000000000,13.0000000000,30,130,100,step,True,False,True,actual_step_onset,False,step_R,step_r,left,R,young,True,replace_v3d_meta_prefilter,step_r,12.0000000000,9.0000000000
global_step,S01,1.0000000000,2,S01_v1.0_T2,0,45,3.3360760212,ok,1,0.9983714124,nmf,torchnmf,cpu,float32,platform_onset,analysis_window_end,3.0000000000,13.0000000000,30,130,100,step,True,False,True,actual_step_onset,False,step_R,step_r,left,R,young,True,replace_v3d_meta_prefilter,step_r,12.0000000000,9.0000000000
global_step,S01,1.0000000000,2,S01_v1.0_T2,0,46,3.3291518688,ok,1,0.9983714124,nmf,torchnmf,cpu,float32,platform_onset,analysis_window_end,3.0000000000,13.0000000000,30,130,100,step,True,False,True,actual_step_onset,False,step_R,step_r,left,R,young,True,replace_v3d_meta_prefilter,step_r,12.0000000000,9.0000000000
global_step,S01,1.0000000000,2,S01_v1.0_T2,0,47,3.3222274780,ok,1,0.9983714124,nmf,torchnmf,cpu,float32,platform_onset,analysis_window_end,3.0000000000,13.0000000000,30,130,100,step,True,False,True,actual_step_onset,False,step_R,step_r,left,R,young,True,replace_v3d_meta_prefilter,step_r,12.0000000000,9.0000000000
global_step,S01,1.0000000000,2,S01_v1.0_T2,0,48,3.3153030872,ok,1,0.9983714124,nmf,torchnmf,cpu,float32,platform_onset,analysis_window_end,3.0000000000,13.0000000000,30,130,100,step,True,False,True,actual_step_onset,False,step_R,step_r,left,R,young,True,replace_v3d_meta_prefilter,step_r,12.0000000000,9.0000000000
global_step,S01,1.0000000000,2,S01_v1.0_T2,0,49,3.3083786964,ok,1,0.9983714124,nmf,torchnmf,cpu,float32,platform_onset,analysis_window_end,3.0000000000,13.0000000000,30,130,100,step,True,False,True,actual_step_onset,False,step_R,step_r,left,R,young,True,replace_v3d_meta_prefilter,step_r,12.0000000000,9.0000000000
global_step,S01,1.0000000000,2,S01_v1.0_T2,0,50,3.3011384010,ok,1,0.9983714124,nmf,torchnmf,cpu,float32,platform_onset,analysis_window_end,3.0000000000,13.0000000000,30,130,100,step,True,False,True,actual_step_onset,False,step_R,step_r,left,R,young,True,replace_v3d_meta_prefilter,step_r,12.0000000000,9.0000000000
global_step,S01,1.0000000000,2,S01_v1.0_T2,0,51,3.2935819626,ok,1,0.9983714124,nmf,torchnmf,cpu,float32,platform_onset,analysis_window_end,3.0000000000,13.0000000000,30,130,100,step,True,False,True,actual_step_onset,False,step_R,step_r,left,R,young,True,replace_v3d_meta_prefilter,step_r,12.0000000000,9.0000000000
global_step,S01,1.0000000000,2,S01_v1.0_T2,0,52,3.2860255241,ok,1,0.9983714124,nmf,torchnmf,cpu,float32,platform_onset,analysis_window_end,3.0000000000,13.0000000000,30,130,100,step,True,False,True,actual_step_onset,False,step_R,step_r,left,R,young,True,replace_v3d_meta_prefilter,step_r,12.0000000000,9.0000000000
global_step,S01,1.0000000000,2,S01_v1.0_T2,0,53,3.2784693241,ok,1,0.9983714124,nmf,torchnmf,cpu,float32,platform_onset,analysis_window_end,3.0000000000,13.0000000000,30,130,100,step,True,False,True,actual_step_onset,False,step_R,step_r,left,R,young,True,replace_v3d_meta_prefilter,step_r,12.0000000000,9.0000000000
global_step,S01,1.0000000000,2,S01_v1.0_T2,0,54,3.2709128857,ok,1,0.9983714124,nmf,torchnmf,cpu,float32,platform_onset,analysis_window_end,3.0000000000,13.0000000000,30,130,100,step,True,False,True,actual_step_onset,False,step_R,step_r,left,R,young,True,replace_v3d_meta_prefilter,step_r,12.0000000000,9.0000000000
global_step,S01,1.0000000000,2,S01_v1.0_T2,0,55,3.2633564472,ok,1,0.9983714124,nmf,torchnmf,cpu,float32,platform_onset,analysis_window_end,3.0000000000,13.0000000000,30,130,100,step,True,False,True,actual_step_onset,False,step_R,step_r,left,R,young,True,replace_v3d_meta_prefilter,step_r,12.0000000000,9.0000000000
global_step,S01,1.0000000000,2,S01_v1.0_T2,0,56,3.2558000088,ok,1,0.9983714124,nmf,torchnmf,cpu,float32,platform_onset,analysis_window_end,3.0000000000,13.0000000000,30,130,100,step,True,False,True,actual_step_onset,False,step_R,step_r,left,R,young,True,replace_v3d_meta_prefilter,step_r,12.0000000000,9.0000000000
global_step,S01,1.0000000000,2,S01_v1.0_T2,0,57,3.2482435703,ok,1,0.9983714124,nmf,torchnmf,cpu,float32,platform_onset,analysis_window_end,3.0000000000,13.0000000000,30,130,100,step,True,False,True,actual_step_onset,False,step_R,step_r,left,R,young,True,replace_v3d_meta_prefilter,step_r,12.0000000000,9.0000000000
global_step,S01,1.0000000000,2,S01_v1.0_T2,0,58,3.2406871319,ok,1,0.9983714124,nmf,torchnmf,cpu,float32,platform_onset,analysis_window_end,3.0000000000,13.0000000000,30,130,100,step,True,False,True,actual_step_onset,False,step_R,step_r,left,R,young,True,replace_v3d_meta_prefilter,step_r,12.0000000000,9.0000000000
global_step,S01,1.0000000000,2,S01_v1.0_T2,0,59,3.2331309319,ok,1,0.9983714124,nmf,torchnmf,cpu,float32,platform_onset,analysis_window_end,3.0000000000,13.0000000000,30,130,100,step,True,False,True,actual_step_onset,False,step_R,step_r,left,R,young,True,replace_v3d_meta_prefilter,step_r,12.0000000000,9.0000000000
global_step,S01,1.0000000000,2,S01_v1.0_T2,0,60,3.2255494595,ok,1,0.9983714124,nmf,torchnmf,cpu,float32,platform_onset,analysis_window_end,3.0000000000,13.0000000000,30,130,100,step,True,False,True,actual_step_onset,False,step_R,step_r,left,R,young,True,replace_v3d_meta_prefilter,step_r,12.0000000000,9.0000000000
global_step,S01,1.0000000000,2,S01_v1.0_T2,0,61,3.2179515362,ok,1,0.9983714124,nmf,torchnmf,cpu,float32,platform_onset,analysis_window_end,3.0000000000,13.0000000000,30,130,100,step,True,False,True,actual_step_onset,False,step_R,step_r,left,R,young,True,replace_v3d_meta_prefilter,step_r,12.0000000000,9.0000000000
global_step,S01,1.0000000000,2,S01_v1.0_T2,0,62,3.2103533745,ok,1,0.9983714124,nmf,torchnmf,cpu,float32,platform_onset,analysis_window_end,3.0000000000,13.0000000000,30,130,100,step,True,False,True,actual_step_onset,False,step_R,step_r,left,R,young,True,replace_v3d_meta_prefilter,step_r,12.0000000000,9.0000000000
global_step,S01,1.0000000000,2,S01_v1.0_T2,0,63,3.2027554512,ok,1,0.9983714124,nmf,torchnmf,cpu,float32,platform_onset,analysis_window_end,3.0000000000,13.0000000000,30,130,100,step,True,False,True,actual_step_onset,False,step_R,step_r,left,R,young,True,replace_v3d_meta_prefilter,step_r,12.0000000000,9.0000000000
global_step,S01,1.0000000000,2,S01_v1.0_T2,0,64,3.1951572895,ok,1,0.9983714124,nmf,torchnmf,cpu,float32,platform_onset,analysis_window_end,3.0000000000,13.0000000000,30,130,100,step,True,False,True,actual_step_onset,False,step_R,step_r,left,R,young,True,replace_v3d_meta_prefilter,step_r,12.0000000000,9.0000000000
global_step,S01,1.0000000000,2,S01_v1.0_T2,0,65,3.1875593662,ok,1,0.9983714124,nmf,torchnmf,cpu,float32,platform_onset,analysis_window_end,3.0000000000,13.0000000000,30,130,100,step,True,False,True,actual_step_onset,False,step_R,step_r,left,R,young,True,replace_v3d_meta_prefilter,step_r,12.0000000000,9.0000000000
global_step,S01,1.0000000000,2,S01_v1.0_T2,0,66,3.1799614429,ok,1,0.9983714124,nmf,torchnmf,cpu,float32,platform_onset,analysis_window_end,3.0000000000,13.0000000000,30,130,100,step,True,False,True,actual_step_onset,False,step_R,step_r,left,R,young,True,replace_v3d_meta_prefilter,step_r,12.0000000000,9.0000000000
global_step,S01,1.0000000000,2,S01_v1.0_T2,0,67,3.1723632812,ok,1,0.9983714124,nmf,torchnmf,cpu,float32,platform_onset,analysis_window_end,3.0000000000,13.0000000000,30,130,100,step,True,False,True,actual_step_onset,False,step_R,step_r,left,R,young,True,replace_v3d_meta_prefilter,step_r,12.0000000000,9.0000000000
global_step,S01,1.0000000000,2,S01_v1.0_T2,0,68,3.1647653580,ok,1,0.9983714124,nmf,torchnmf,cpu,float32,platform_onset,analysis_window_end,3.0000000000,13.0000000000,30,130,100,step,True,False,True,actual_step_onset,False,step_R,step_r,left,R,young,True,replace_v3d_meta_prefilter,step_r,12.0000000000,9.0000000000
global_step,S01,1.0000000000,2,S01_v1.0_T2,0,69,3.1571674347,ok,1,0.9983714124,nmf,torchnmf,cpu,float32,platform_onset,analysis_window_end,3.0000000000,13.0000000000,30,130,100,step,True,False,True,actual_step_onset,False,step_R,step_r,left,R,young,True,replace_v3d_meta_prefilter,step_r,12.0000000000,9.0000000000
global_step,S01,1.0000000000,2,S01_v1.0_T2,0,70,3.1499559879,ok,1,0.9983714124,nmf,torchnmf,cpu,float32,platform_onset,analysis_window_end,3.0000000000,13.0000000000,30,130,100,step,True,False,True,actual_step_onset,False,step_R,step_r,left,R,young,True,replace_v3d_meta_prefilter,step_r,12.0000000000,9.0000000000
global_step,S01,1.0000000000,2,S01_v1.0_T2,0,71,3.1429102421,ok,1,0.9983714124,nmf,torchnmf,cpu,float32,platform_onset,analysis_window_end,3.0000000000,13.0000000000,30,130,100,step,True,False,True,actual_step_onset,False,step_R,step_r,left,R,young,True,replace_v3d_meta_prefilter,step_r,12.0000000000,9.0000000000
global_step,S01,1.0000000000,2,S01_v1.0_T2,0,72,3.1358644962,ok,1,0.9983714124,nmf,torchnmf,cpu,float32,platform_onset,analysis_window_end,3.0000000000,13.0000000000,30,130,100,step,True,False,True,actual_step_onset,False,step_R,step_r,left,R,young,True,replace_v3d_meta_prefilter,step_r,12.0000000000,9.0000000000
global_step,S01,1.0000000000,2,S01_v1.0_T2,0,73,3.1288187504,ok,1,0.9983714124,nmf,torchnmf,cpu,float32,platform_onset,analysis_window_end,3.0000000000,13.0000000000,30,130,100,step,True,False,True,actual_step_onset,False,step_R,step_r,left,R,young,True,replace_v3d_meta_prefilter,step_r,12.0000000000,9.0000000000
global_step,S01,1.0000000000,2,S01_v1.0_T2,0,74,3.1217730045,ok,1,0.9983714124,nmf,torchnmf,cpu,float32,platform_onset,analysis_window_end,3.0000000000,13.0000000000,30,130,100,step,True,False,True,actual_step_onset,False,step_R,step_r,left,R,young,True,replace_v3d_meta_prefilter,step_r,12.0000000000,9.0000000000
global_step,S01,1.0000000000,2,S01_v1.0_T2,0,75,3.1147274971,ok,1,0.9983714124,nmf,torchnmf,cpu,float32,platform_onset,analysis_window_end,3.0000000000,13.0000000000,30,130,100,step,True,False,True,actual_step_onset,False,step_R,step_r,left,R,young,True,replace_v3d_meta_prefilter,step_r,12.0000000000,9.0000000000
global_step,S01,1.0000000000,2,S01_v1.0_T2,0,76,3.1076817513,ok,1,0.9983714124,nmf,torchnmf,cpu,float32,platform_onset,analysis_window_end,3.0000000000,13.0000000000,30,130,100,step,True,False,True,actual_step_onset,False,step_R,step_r,left,R,young,True,replace_v3d_meta_prefilter,step_r,12.0000000000,9.0000000000
global_step,S01,1.0000000000,2,S01_v1.0_T2,0,77,3.1006360054,ok,1,0.9983714124,nmf,torchnmf,cpu,float32,platform_onset,analysis_window_end,3.0000000000,13.0000000000,30,130,100,step,True,False,True,actual_step_onset,False,step_R,step_r,left,R,young,True,replace_v3d_meta_prefilter,step_r,12.0000000000,9.0000000000
global_step,S01,1.0000000000,2,S01_v1.0_T2,0,78,3.0935902596,ok,1,0.9983714124,nmf,torchnmf,cpu,float32,platform_onset,analysis_window_end,3.0000000000,13.0000000000,30,130,100,step,True,False,True,actual_step_onset,False,step_R,step_r,left,R,young,True,replace_v3d_meta_prefilter,step_r,12.0000000000,9.0000000000
global_step,S01,1.0000000000,2,S01_v1.0_T2,0,79,3.0865445137,ok,1,0.9983714124,nmf,torchnmf,cpu,float32,platform_onset,analysis_window_end,3.0000000000,13.0000000000,30,130,100,step,True,False,True,actual_step_onset,False,step_R,step_r,left,R,young,True,replace_v3d_meta_prefilter,step_r,12.0000000000,9.0000000000
global_step,S01,1.0000000000,2,S01_v1.0_T2,0,80,3.0803828239,ok,1,0.9983714124,nmf,torchnmf,cpu,float32,platform_onset,analysis_window_end,3.0000000000,13.0000000000,30,130,100,step,True,False,True,actual_step_onset,False,step_R,step_r,left,R,young,True,replace_v3d_meta_prefilter,step_r,12.0000000000,9.0000000000
global_step,S01,1.0000000000,2,S01_v1.0_T2,0,81,3.0744421482,ok,1,0.9983714124,nmf,torchnmf,cpu,float32,platform_onset,analysis_window_end,3.0000000000,13.0000000000,30,130,100,step,True,False,True,actual_step_onset,False,step_R,step_r,left,R,young,True,replace_v3d_meta_prefilter,step_r,12.0000000000,9.0000000000
global_step,S01,1.0000000000,2,S01_v1.0_T2,0,82,3.0685014725,ok,1,0.9983714124,nmf,torchnmf,cpu,float32,platform_onset,analysis_window_end,3.0000000000,13.0000000000,30,130,100,step,True,False,True,actual_step_onset,False,step_R,step_r,left,R,young,True,replace_v3d_meta_prefilter,step_r,12.0000000000,9.0000000000
global_step,S01,1.0000000000,2,S01_v1.0_T2,0,83,3.0625605583,ok,1,0.9983714124,nmf,torchnmf,cpu,float32,platform_onset,analysis_window_end,3.0000000000,13.0000000000,30,130,100,step,True,False,True,actual_step_onset,False,step_R,step_r,left,R,young,True,replace_v3d_meta_prefilter,step_r,12.0000000000,9.0000000000
global_step,S01,1.0000000000,2,S01_v1.0_T2,0,84,3.0566198826,ok,1,0.9983714124,nmf,torchnmf,cpu,float32,platform_onset,analysis_window_end,3.0000000000,13.0000000000,30,130,100,step,True,False,True,actual_step_onset,False,step_R,step_r,left,R,young,True,replace_v3d_meta_prefilter,step_r,12.0000000000,9.0000000000
global_step,S01,1.0000000000,2,S01_v1.0_T2,0,85,3.0506792068,ok,1,0.9983714124,nmf,torchnmf,cpu,float32,platform_onset,analysis_window_end,3.0000000000,13.0000000000,30,130,100,step,True,False,True,actual_step_onset,False,step_R,step_r,left,R,young,True,replace_v3d_meta_prefilter,step_r,12.0000000000,9.0000000000
global_step,S01,1.0000000000,2,S01_v1.0_T2,0,86,3.0447385311,ok,1,0.9983714124,nmf,torchnmf,cpu,float32,platform_onset,analysis_window_end,3.0000000000,13.0000000000,30,130,100,step,True,False,True,actual_step_onset,False,step_R,step_r,left,R,young,True,replace_v3d_meta_prefilter,step_r,12.0000000000,9.0000000000
global_step,S01,1.0000000000,2,S01_v1.0_T2,0,87,3.0387976170,ok,1,0.9983714124,nmf,torchnmf,cpu,float32,platform_onset,analysis_window_end,3.0000000000,13.0000000000,30,130,100,step,True,False,True,actual_step_onset,False,step_R,step_r,left,R,young,True,replace_v3d_meta_prefilter,step_r,12.0000000000,9.0000000000
global_step,S01,1.0000000000,2,S01_v1.0_T2,0,88,3.0328569412,ok,1,0.9983714124,nmf,torchnmf,cpu,float32,platform_onset,analysis_window_end,3.0000000000,13.0000000000,30,130,100,step,True,False,True,actual_step_onset,False,step_R,step_r,left,R,young,True,replace_v3d_meta_prefilter,step_r,12.0000000000,9.0000000000
global_step,S01,1.0000000000,2,S01_v1.0_T2,0,89,3.0269162655,ok,1,0.9983714124,nmf,torchnmf,cpu,float32,platform_onset,analysis_window_end,3.0000000000,13.0000000000,30,130,100,step,True,False,True,actual_step_onset,False,step_R,step_r,left,R,young,True,replace_v3d_meta_prefilter,step_r,12.0000000000,9.0000000000
global_step,S01,1.0000000000,2,S01_v1.0_T2,0,90,3.0223937035,ok,1,0.9983714124,nmf,torchnmf,cpu,float32,platform_onset,analysis_window_end,3.0000000000,13.0000000000,30,130,100,step,True,False,True,actual_step_onset,False,step_R,step_r,left,R,young,True,replace_v3d_meta_prefilter,step_r,12.0000000000,9.0000000000
global_step,S01,1.0000000000,2,S01_v1.0_T2,0,91,3.0180287361,ok,1,0.9983714124,nmf,torchnmf,cpu,float32,platform_onset,analysis_window_end,3.0000000000,13.0000000000,30,130,100,step,True,False,True,actual_step_onset,False,step_R,step_r,left,R,young,True,replace_v3d_meta_prefilter,step_r,12.0000000000,9.0000000000
global_step,S01,1.0000000000,2,S01_v1.0_T2,0,92,3.0136640072,ok,1,0.9983714124,nmf,torchnmf,cpu,float32,platform_onset,analysis_window_end,3.0000000000,13.0000000000,30,130,100,step,True,False,True,actual_step_onset,False,step_R,step_r,left,R,young,True,replace_v3d_meta_prefilter,step_r,12.0000000000,9.0000000000
global_step,S01,1.0000000000,2,S01_v1.0_T2,0,93,3.0092990398,ok,1,0.9983714124,nmf,torchnmf,cpu,float32,platform_onset,analysis_window_end,3.0000000000,13.0000000000,30,130,100,step,True,False,True,actual_step_onset,False,step_R,step_r,left,R,young,True,replace_v3d_meta_prefilter,step_r,12.0000000000,9.0000000000
global_step,S01,1.0000000000,2,S01_v1.0_T2,0,94,3.0049340725,ok,1,0.9983714124,nmf,torchnmf,cpu,float32,platform_onset,analysis_window_end,3.0000000000,13.0000000000,30,130,100,step,True,False,True,actual_step_onset,False,step_R,step_r,left,R,young,True,replace_v3d_meta_prefilter,step_r,12.0000000000,9.0000000000
global_step,S01,1.0000000000,2,S01_v1.0_T2,0,95,3.0005693436,ok,1,0.9983714124,nmf,torchnmf,cpu,float32,platform_onset,analysis_window_end,3.0000000000,13.0000000000,30,130,100,step,True,False,True,actual_step_onset,False,step_R,step_r,left,R,young,True,replace_v3d_meta_prefilter,step_r,12.0000000000,9.0000000000
global_step,S01,1.0000000000,2,S01_v1.0_T2,0,96,2.9962043762,ok,1,0.9983714124,nmf,torchnmf,cpu,float32,platform_onset,analysis_window_end,3.0000000000,13.0000000000,30,130,100,step,True,False,True,actual_step_onset,False,step_R,step_r,left,R,young,True,replace_v3d_meta_prefilter,step_r,12.0000000000,9.0000000000
global_step,S01,1.0000000000,2,S01_v1.0_T2,0,97,2.9918394089,ok,1,0.9983714124,nmf,torchnmf,cpu,float32,platform_onset,analysis_window_end,3.0000000000,13.0000000000,30,130,100,step,True,False,True,actual_step_onset,False,step_R,step_r,left,R,young,True,replace_v3d_meta_prefilter,step_r,12.0000000000,9.0000000000
global_step,S01,1.0000000000,2,S01_v1.0_T2,0,98,2.9874746799,ok,1,0.9983714124,nmf,torchnmf,cpu,float32,platform_onset,analysis_window_end,3.0000000000,13.0000000000,30,130,100,step,True,False,True,actual_step_onset,False,step_R,step_r,left,R,young,True,replace_v3d_meta_prefilter,step_r,12.0000000000,9.0000000000
global_step,S01,1.0000000000,2,S01_v1.0_T2,0,99,2.9831097126,ok,1,0.9983714124,nmf,torchnmf,cpu,float32,platform_onset,analysis_window_end,3.0000000000,13.0000000000,30,130,100,step,True,False,True,actual_step_onset,False,step_R,step_r,left,R,young,True,replace_v3d_meta_prefilter,step_r,12.0000000000,9.0000000000
global_step,S02,1.0000000000,1,S02_v1.0_T1,0,0,6.2485666275,ok,1,0.9996901182,nmf,torchnmf,cpu,float32,platform_onset,analysis_window_end,3.0000000000,11.0000000000,30,110,80,step,True,False,True,actual_step_onset,False,step_L,step_l,right,L,young,True,replace_v3d_meta_prefilter,step_l,12.0000000000,9.0000000000
global_step,S02,1.0000000000,1,S02_v1.0_T1,0,1,6.2485742569,ok,1,0.9996901182,nmf,torchnmf,cpu,float32,platform_onset,analysis_window_end,3.0000000000,11.0000000000,30,110,80,step,True,False,True,actual_step_onset,False,step_L,step_l,right,L,young,True,replace_v3d_meta_prefilter,step_l,12.0000000000,9.0000000000
global_step,S02,1.0000000000,1,S02_v1.0_T1,0,2,6.2485818863,ok,1,0.9996901182,nmf,torchnmf,cpu,float32,platform_onset,analysis_window_end,3.0000000000,11.0000000000,30,110,80,step,True,False,True,actual_step_onset,False,step_L,step_l,right,L,young,True,replace_v3d_meta_prefilter,step_l,12.0000000000,9.0000000000
global_step,S02,1.0000000000,1,S02_v1.0_T1,0,3,6.2485895157,ok,1,0.9996901182,nmf,torchnmf,cpu,float32,platform_onset,analysis_window_end,3.0000000000,11.0000000000,30,110,80,step,True,False,True,actual_step_onset,False,step_L,step_l,right,L,young,True,replace_v3d_meta_prefilter,step_l,12.0000000000,9.0000000000
global_step,S02,1.0000000000,1,S02_v1.0_T1,0,4,6.2485976219,ok,1,0.9996901182,nmf,torchnmf,cpu,float32,platform_onset,analysis_window_end,3.0000000000,11.0000000000,30,110,80,step,True,False,True,actual_step_onset,False,step_L,step_l,right,L,young,True,replace_v3d_meta_prefilter,step_l,12.0000000000,9.0000000000
global_step,S02,1.0000000000,1,S02_v1.0_T1,0,5,6.2486052513,ok,1,0.9996901182,nmf,torchnmf,cpu,float32,platform_onset,analysis_window_end,3.0000000000,11.0000000000,30,110,80,step,True,False,True,actual_step_onset,False,step_L,step_l,right,L,young,True,replace_v3d_meta_prefilter,step_l,12.0000000000,9.0000000000
global_step,S02,1.0000000000,1,S02_v1.0_T1,0,6,6.2486128807,ok,1,0.9996901182,nmf,torchnmf,cpu,float32,platform_onset,analysis_window_end,3.0000000000,11.0000000000,30,110,80,step,True,False,True,actual_step_onset,False,step_L,step_l,right,L,young,True,replace_v3d_meta_prefilter,step_l,12.0000000000,9.0000000000
global_step,S02,1.0000000000,1,S02_v1.0_T1,0,7,6.2486205101,ok,1,0.9996901182,nmf,torchnmf,cpu,float32,platform_onset,analysis_window_end,3.0000000000,11.0000000000,30,110,80,step,True,False,True,actual_step_onset,False,step_L,step_l,right,L,young,True,replace_v3d_meta_prefilter,step_l,12.0000000000,9.0000000000
global_step,S02,1.0000000000,1,S02_v1.0_T1,0,8,6.2486281395,ok,1,0.9996901182,nmf,torchnmf,cpu,float32,platform_onset,analysis_window_end,3.0000000000,11.0000000000,30,110,80,step,True,False,True,actual_step_onset,False,step_L,step_l,right,L,young,True,replace_v3d_meta_prefilter,step_l,12.0000000000,9.0000000000
global_step,S02,1.0000000000,1,S02_v1.0_T1,0,9,6.2486357689,ok,1,0.9996901182,nmf,torchnmf,cpu,float32,platform_onset,analysis_window_end,3.0000000000,11.0000000000,30,110,80,step,True,False,True,actual_step_onset,False,step_L,step_l,right,L,young,True,replace_v3d_meta_prefilter,step_l,12.0000000000,9.0000000000
global_step,S02,1.0000000000,1,S02_v1.0_T1,0,10,6.2486438751,ok,1,0.9996901182,nmf,torchnmf,cpu,float32,platform_onset,analysis_window_end,3.0000000000,11.0000000000,30,110,80,step,True,False,True,actual_step_onset,False,step_L,step_l,right,L,young,True,replace_v3d_meta_prefilter,step_l,12.0000000000,9.0000000000
global_step,S02,1.0000000000,1,S02_v1.0_T1,0,11,6.2486515045,ok,1,0.9996901182,nmf,torchnmf,cpu,float32,platform_onset,analysis_window_end,3.0000000000,11.0000000000,30,110,80,step,True,False,True,actual_step_onset,False,step_L,step_l,right,L,young,True,replace_v3d_meta_prefilter,step_l,12.0000000000,9.0000000000
global_step,S02,1.0000000000,1,S02_v1.0_T1,0,12,6.2486591339,ok,1,0.9996901182,nmf,torchnmf,cpu,float32,platform_onset,analysis_window_end,3.0000000000,11.0000000000,30,110,80,step,True,False,True,actual_step_onset,False,step_L,step_l,right,L,young,True,replace_v3d_meta_prefilter,step_l,12.0000000000,9.0000000000
global_step,S02,1.0000000000,1,S02_v1.0_T1,0,13,6.2475900650,ok,1,0.9996901182,nmf,torchnmf,cpu,float32,platform_onset,analysis_window_end,3.0000000000,11.0000000000,30,110,80,step,True,False,True,actual_step_onset,False,step_L,step_l,right,L,young,True,replace_v3d_meta_prefilter,step_l,12.0000000000,9.0000000000
global_step,S02,1.0000000000,1,S02_v1.0_T1,0,14,6.2458753586,ok,1,0.9996901182,nmf,torchnmf,cpu,float32,platform_onset,analysis_window_end,3.0000000000,11.0000000000,30,110,80,step,True,False,True,actual_step_onset,False,step_L,step_l,right,L,young,True,replace_v3d_meta_prefilter,step_l,12.0000000000,9.0000000000
global_step,S02,1.0000000000,1,S02_v1.0_T1,0,15,6.2441606522,ok,1,0.9996901182,nmf,torchnmf,cpu,float32,platform_onset,analysis_window_end,3.0000000000,11.0000000000,30,110,80,step,True,False,True,actual_step_onset,False,step_L,step_l,right,L,young,True,replace_v3d_meta_prefilter,step_l,12.0000000000,9.0000000000
global_step,S02,1.0000000000,1,S02_v1.0_T1,0,16,6.2424459457,ok,1,0.9996901182,nmf,torchnmf,cpu,float32,platform_onset,analysis_window_end,3.0000000000,11.0000000000,30,110,80,step,True,False,True,actual_step_onset,False,step_L,step_l,right,L,young,True,replace_v3d_meta_prefilter,step_l,12.0000000000,9.0000000000
global_step,S02,1.0000000000,1,S02_v1.0_T1,0,17,6.2407312393,ok,1,0.9996901182,nmf,torchnmf,cpu,float32,platform_onset,analysis_window_end,3.0000000000,11.0000000000,30,110,80,step,True,False,True,actual_step_onset,False,step_L,step_l,right,L,young,True,replace_v3d_meta_prefilter,step_l,12.0000000000,9.0000000000
global_step,S02,1.0000000000,1,S02_v1.0_T1,0,18,6.2390165329,ok,1,0.9996901182,nmf,torchnmf,cpu,float32,platform_onset,analysis_window_end,3.0000000000,11.0000000000,30,110,80,step,True,False,True,actual_step_onset,False,step_L,step_l,right,L,young,True,replace_v3d_meta_prefilter,step_l,12.0000000000,9.0000000000
global_step,S02,1.0000000000,1,S02_v1.0_T1,0,19,6.2373018265,ok,1,0.9996901182,nmf,torchnmf,cpu,float32,platform_onset,analysis_window_end,3.0000000000,11.0000000000,30,110,80,step,True,False,True,actual_step_onset,False,step_L,step_l,right,L,young,True,replace_v3d_meta_prefilter,step_l,12.0000000000,9.0000000000
global_step,S02,1.0000000000,1,S02_v1.0_T1,0,20,6.2355871201,ok,1,0.9996901182,nmf,torchnmf,cpu,float32,platform_onset,analysis_window_end,3.0000000000,11.0000000000,30,110,80,step,True,False,True,actual_step_onset,False,step_L,step_l,right,L,young,True,replace_v3d_meta_prefilter,step_l,12.0000000000,9.0000000000
global_step,S02,1.0000000000,1,S02_v1.0_T1,0,21,6.2338724136,ok,1,0.9996901182,nmf,torchnmf,cpu,float32,platform_onset,analysis_window_end,3.0000000000,11.0000000000,30,110,80,step,True,False,True,actual_step_onset,False,step_L,step_l,right,L,young,True,replace_v3d_meta_prefilter,step_l,12.0000000000,9.0000000000
global_step,S02,1.0000000000,1,S02_v1.0_T1,0,22,6.2321577072,ok,1,0.9996901182,nmf,torchnmf,cpu,float32,platform_onset,analysis_window_end,3.0000000000,11.0000000000,30,110,80,step,True,False,True,actual_step_onset,False,step_L,step_l,right,L,young,True,replace_v3d_meta_prefilter,step_l,12.0000000000,9.0000000000
global_step,S02,1.0000000000,1,S02_v1.0_T1,0,23,6.2304430008,ok,1,0.9996901182,nmf,torchnmf,cpu,float32,platform_onset,analysis_window_end,3.0000000000,11.0000000000,30,110,80,step,True,False,True,actual_step_onset,False,step_L,step_l,right,L,young,True,replace_v3d_meta_prefilter,step_l,12.0000000000,9.0000000000
global_step,S02,1.0000000000,1,S02_v1.0_T1,0,24,6.2287282944,ok,1,0.9996901182,nmf,torchnmf,cpu,float32,platform_onset,analysis_window_end,3.0000000000,11.0000000000,30,110,80,step,True,False,True,actual_step_onset,False,step_L,step_l,right,L,young,True,replace_v3d_meta_prefilter,step_l,12.0000000000,9.0000000000
global_step,S02,1.0000000000,1,S02_v1.0_T1,0,25,6.2266206741,ok,1,0.9996901182,nmf,torchnmf,cpu,float32,platform_onset,analysis_window_end,3.0000000000,11.0000000000,30,110,80,step,True,False,True,actual_step_onset,False,step_L,step_l,right,L,young,True,replace_v3d_meta_prefilter,step_l,12.0000000000,9.0000000000
global_step,S02,1.0000000000,1,S02_v1.0_T1,0,26,6.2233347893,ok,1,0.9996901182,nmf,torchnmf,cpu,float32,platform_onset,analysis_window_end,3.0000000000,11.0000000000,30,110,80,step,True,False,True,actual_step_onset,False,step_L,step_l,right,L,young,True,replace_v3d_meta_prefilter,step_l,12.0000000000,9.0000000000
global_step,S02,1.0000000000,1,S02_v1.0_T1,0,27,6.2200493813,ok,1,0.9996901182,nmf,torchnmf,cpu,float32,platform_onset,analysis_window_end,3.0000000000,11.0000000000,30,110,80,step,True,False,True,actual_step_onset,False,step_L,step_l,right,L,young,True,replace_v3d_meta_prefilter,step_l,12.0000000000,9.0000000000
global_step,S02,1.0000000000,1,S02_v1.0_T1,0,28,6.2167634964,ok,1,0.9996901182,nmf,torchnmf,cpu,float32,platform_onset,analysis_window_end,3.0000000000,11.0000000000,30,110,80,step,True,False,True,actual_step_onset,False,step_L,step_l,right,L,young,True,replace_v3d_meta_prefilter,step_l,12.0000000000,9.0000000000
global_step,S02,1.0000000000,1,S02_v1.0_T1,0,29,6.2134776115,ok,1,0.9996901182,nmf,torchnmf,cpu,float32,platform_onset,analysis_window_end,3.0000000000,11.0000000000,30,110,80,step,True,False,True,actual_step_onset,False,step_L,step_l,right,L,young,True,replace_v3d_meta_prefilter,step_l,12.0000000000,9.0000000000
global_step,S02,1.0000000000,1,S02_v1.0_T1,0,30,6.2101917267,ok,1,0.9996901182,nmf,torchnmf,cpu,float32,platform_onset,analysis_window_end,3.0000000000,11.0000000000,30,110,80,step,True,False,True,actual_step_onset,False,step_L,step_l,right,L,young,True,replace_v3d_meta_prefilter,step_l,12.0000000000,9.0000000000
global_step,S02,1.0000000000,1,S02_v1.0_T1,0,31,6.2069058418,ok,1,0.9996901182,nmf,torchnmf,cpu,float32,platform_onset,analysis_window_end,3.0000000000,11.0000000000,30,110,80,step,True,False,True,actual_step_onset,False,step_L,step_l,right,L,young,True,replace_v3d_meta_prefilter,step_l,12.0000000000,9.0000000000
global_step,S02,1.0000000000,1,S02_v1.0_T1,0,32,6.2036199570,ok,1,0.9996901182,nmf,torchnmf,cpu,float32,platform_onset,analysis_window_end,3.0000000000,11.0000000000,30,110,80,step,True,False,True,actual_step_onset,False,step_L,step_l,right,L,young,True,replace_v3d_meta_prefilter,step_l,12.0000000000,9.0000000000
global_step,S02,1.0000000000,1,S02_v1.0_T1,0,33,6.2003345490,ok,1,0.9996901182,nmf,torchnmf,cpu,float32,platform_onset,analysis_window_end,3.0000000000,11.0000000000,30,110,80,step,True,False,True,actual_step_onset,False,step_L,step_l,right,L,young,True,replace_v3d_meta_prefilter,step_l,12.0000000000,9.0000000000
global_step,S02,1.0000000000,1,S02_v1.0_T1,0,34,6.1970486641,ok,1,0.9996901182,nmf,torchnmf,cpu,float32,platform_onset,analysis_window_end,3.0000000000,11.0000000000,30,110,80,step,True,False,True,actual_step_onset,False,step_L,step_l,right,L,young,True,replace_v3d_meta_prefilter,step_l,12.0000000000,9.0000000000
global_step,S02,1.0000000000,1,S02_v1.0_T1,0,35,6.1937627792,ok,1,0.9996901182,nmf,torchnmf,cpu,float32,platform_onset,analysis_window_end,3.0000000000,11.0000000000,30,110,80,step,True,False,True,actual_step_onset,False,step_L,step_l,right,L,young,True,replace_v3d_meta_prefilter,step_l,12.0000000000,9.0000000000
global_step,S02,1.0000000000,1,S02_v1.0_T1,0,36,6.1904768944,ok,1,0.9996901182,nmf,torchnmf,cpu,float32,platform_onset,analysis_window_end,3.0000000000,11.0000000000,30,110,80,step,True,False,True,actual_step_onset,False,step_L,step_l,right,L,young,True,replace_v3d_meta_prefilter,step_l,12.0000000000,9.0000000000
global_step,S02,1.0000000000,1,S02_v1.0_T1,0,37,6.1871910095,ok,1,0.9996901182,nmf,torchnmf,cpu,float32,platform_onset,analysis_window_end,3.0000000000,11.0000000000,30,110,80,step,True,False,True,actual_step_onset,False,step_L,step_l,right,L,young,True,replace_v3d_meta_prefilter,step_l,12.0000000000,9.0000000000
global_step,S02,1.0000000000,1,S02_v1.0_T1,0,38,6.1827650070,ok,1,0.9996901182,nmf,torchnmf,cpu,float32,platform_onset,analysis_window_end,3.0000000000,11.0000000000,30,110,80,step,True,False,True,actual_step_onset,False,step_L,step_l,right,L,young,True,replace_v3d_meta_prefilter,step_l,12.0000000000,9.0000000000
global_step,S02,1.0000000000,1,S02_v1.0_T1,0,39,6.1781759262,ok,1,0.9996901182,nmf,torchnmf,cpu,float32,platform_onset,analysis_window_end,3.0000000000,11.0000000000,30,110,80,step,True,False,True,actual_step_onset,False,step_L,step_l,right,L,young,True,replace_v3d_meta_prefilter,step_l,12.0000000000,9.0000000000
global_step,S02,1.0000000000,1,S02_v1.0_T1,0,40,6.1735868454,ok,1,0.9996901182,nmf,torchnmf,cpu,float32,platform_onset,analysis_window_end,3.0000000000,11.0000000000,30,110,80,step,True,False,True,actual_step_onset,False,step_L,step_l,right,L,young,True,replace_v3d_meta_prefilter,step_l,12.0000000000,9.0000000000
global_step,S02,1.0000000000,1,S02_v1.0_T1,0,41,6.1689982414,ok,1,0.9996901182,nmf,torchnmf,cpu,float32,platform_onset,analysis_window_end,3.0000000000,11.0000000000,30,110,80,step,True,False,True,actual_step_onset,False,step_L,step_l,right,L,young,True,replace_v3d_meta_prefilter,step_l,12.0000000000,9.0000000000
global_step,S02,1.0000000000,1,S02_v1.0_T1,0,42,6.1644091606,ok,1,0.9996901182,nmf,torchnmf,cpu,float32,platform_onset,analysis_window_end,3.0000000000,11.0000000000,30,110,80,step,True,False,True,actual_step_onset,False,step_L,step_l,right,L,young,True,replace_v3d_meta_prefilter,step_l,12.0000000000,9.0000000000
global_step,S02,1.0000000000,1,S02_v1.0_T1,0,43,6.1598200798,ok,1,0.9996901182,nmf,torchnmf,cpu,float32,platform_onset,analysis_window_end,3.0000000000,11.0000000000,30,110,80,step,True,False,True,actual_step_onset,False,step_L,step_l,right,L,young,True,replace_v3d_meta_prefilter,step_l,12.0000000000,9.0000000000
global_step,S02,1.0000000000,1,S02_v1.0_T1,0,44,6.1552309990,ok,1,0.9996901182,nmf,torchnmf,cpu,float32,platform_onset,analysis_window_end,3.0000000000,11.0000000000,30,110,80,step,True,False,True,actual_step_onset,False,step_L,step_l,right,L,young,True,replace_v3d_meta_prefilter,step_l,12.0000000000,9.0000000000
global_step,S02,1.0000000000,1,S02_v1.0_T1,0,45,6.1506419182,ok,1,0.9996901182,nmf,torchnmf,cpu,float32,platform_onset,analysis_window_end,3.0000000000,11.0000000000,30,110,80,step,True,False,True,actual_step_onset,False,step_L,step_l,right,L,young,True,replace_v3d_meta_prefilter,step_l,12.0000000000,9.0000000000
global_step,S02,1.0000000000,1,S02_v1.0_T1,0,46,6.1460528374,ok,1,0.9996901182,nmf,torchnmf,cpu,float32,platform_onset,analysis_window_end,3.0000000000,11.0000000000,30,110,80,step,True,False,True,actual_step_onset,False,step_L,step_l,right,L,young,True,replace_v3d_meta_prefilter,step_l,12.0000000000,9.0000000000
global_step,S02,1.0000000000,1,S02_v1.0_T1,0,47,6.1414642334,ok,1,0.9996901182,nmf,torchnmf,cpu,float32,platform_onset,analysis_window_end,3.0000000000,11.0000000000,30,110,80,step,True,False,True,actual_step_onset,False,step_L,step_l,right,L,young,True,replace_v3d_meta_prefilter,step_l,12.0000000000,9.0000000000
global_step,S02,1.0000000000,1,S02_v1.0_T1,0,48,6.1368751526,ok,1,0.9996901182,nmf,torchnmf,cpu,float32,platform_onset,analysis_window_end,3.0000000000,11.0000000000,30,110,80,step,True,False,True,actual_step_onset,False,step_L,step_l,right,L,young,True,replace_v3d_meta_prefilter,step_l,12.0000000000,9.0000000000
global_step,S02,1.0000000000,1,S02_v1.0_T1,0,49,6.1322860718,ok,1,0.9996901182,nmf,torchnmf,cpu,float32,platform_onset,analysis_window_end,3.0000000000,11.0000000000,30,110,80,step,True,False,True,actual_step_onset,False,step_L,step_l,right,L,young,True,replace_v3d_meta_prefilter,step_l,12.0000000000,9.0000000000
global_step,S02,1.0000000000,1,S02_v1.0_T1,0,50,6.1272277832,ok,1,0.9996901182,nmf,torchnmf,cpu,float32,platform_onset,analysis_window_end,3.0000000000,11.0000000000,30,110,80,step,True,False,True,actual_step_onset,False,step_L,step_l,right,L,young,True,replace_v3d_meta_prefilter,step_l,12.0000000000,9.0000000000
global_step,S02,1.0000000000,1,S02_v1.0_T1,0,51,6.1216998100,ok,1,0.9996901182,nmf,torchnmf,cpu,float32,platform_onset,analysis_window_end,3.0000000000,11.0000000000,30,110,80,step,True,False,True,actual_step_onset,False,step_L,step_l,right,L,young,True,replace_v3d_meta_prefilter,step_l,12.0000000000,9.0000000000
global_step,S02,1.0000000000,1,S02_v1.0_T1,0,52,6.1161718369,ok,1,0.9996901182,nmf,torchnmf,cpu,float32,platform_onset,analysis_window_end,3.0000000000,11.0000000000,30,110,80,step,True,False,True,actual_step_onset,False,step_L,step_l,right,L,young,True,replace_v3d_meta_prefilter,step_l,12.0000000000,9.0000000000
global_step,S02,1.0000000000,1,S02_v1.0_T1,0,53,6.1106438637,ok,1,0.9996901182,nmf,torchnmf,cpu,float32,platform_onset,analysis_window_end,3.0000000000,11.0000000000,30,110,80,step,True,False,True,actual_step_onset,False,step_L,step_l,right,L,young,True,replace_v3d_meta_prefilter,step_l,12.0000000000,9.0000000000
global_step,S02,1.0000000000,1,S02_v1.0_T1,0,54,6.1051158905,ok,1,0.9996901182,nmf,torchnmf,cpu,float32,platform_onset,analysis_window_end,3.0000000000,11.0000000000,30,110,80,step,True,False,True,actual_step_onset,False,step_L,step_l,right,L,young,True,replace_v3d_meta_prefilter,step_l,12.0000000000,9.0000000000
global_step,S02,1.0000000000,1,S02_v1.0_T1,0,55,6.0995883942,ok,1,0.9996901182,nmf,torchnmf,cpu,float32,platform_onset,analysis_window_end,3.0000000000,11.0000000000,30,110,80,step,True,False,True,actual_step_onset,False,step_L,step_l,right,L,young,True,replace_v3d_meta_prefilter,step_l,12.0000000000,9.0000000000
global_step,S02,1.0000000000,1,S02_v1.0_T1,0,56,6.0940604210,ok,1,0.9996901182,nmf,torchnmf,cpu,float32,platform_onset,analysis_window_end,3.0000000000,11.0000000000,30,110,80,step,True,False,True,actual_step_onset,False,step_L,step_l,right,L,young,True,replace_v3d_meta_prefilter,step_l,12.0000000000,9.0000000000
global_step,S02,1.0000000000,1,S02_v1.0_T1,0,57,6.0885324478,ok,1,0.9996901182,nmf,torchnmf,cpu,float32,platform_onset,analysis_window_end,3.0000000000,11.0000000000,30,110,80,step,True,False,True,actual_step_onset,False,step_L,step_l,right,L,young,True,replace_v3d_meta_prefilter,step_l,12.0000000000,9.0000000000
global_step,S02,1.0000000000,1,S02_v1.0_T1,0,58,6.0830044746,ok,1,0.9996901182,nmf,torchnmf,cpu,float32,platform_onset,analysis_window_end,3.0000000000,11.0000000000,30,110,80,step,True,False,True,actual_step_onset,False,step_L,step_l,right,L,young,True,replace_v3d_meta_prefilter,step_l,12.0000000000,9.0000000000
global_step,S02,1.0000000000,1,S02_v1.0_T1,0,59,6.0774765015,ok,1,0.9996901182,nmf,torchnmf,cpu,float32,platform_onset,analysis_window_end,3.0000000000,11.0000000000,30,110,80,step,True,False,True,actual_step_onset,False,step_L,step_l,right,L,young,True,replace_v3d_meta_prefilter,step_l,12.0000000000,9.0000000000
global_step,S02,1.0000000000,1,S02_v1.0_T1,0,60,6.0719490051,ok,1,0.9996901182,nmf,torchnmf,cpu,float32,platform_onset,analysis_window_end,3.0000000000,11.0000000000,30,110,80,step,True,False,True,actual_step_onset,False,step_L,step_l,right,L,young,True,replace_v3d_meta_prefilter,step_l,12.0000000000,9.0000000000
global_step,S02,1.0000000000,1,S02_v1.0_T1,0,61,6.0664210320,ok,1,0.9996901182,nmf,torchnmf,cpu,float32,platform_onset,analysis_window_end,3.0000000000,11.0000000000,30,110,80,step,True,False,True,actual_step_onset,False,step_L,step_l,right,L,young,True,replace_v3d_meta_prefilter,step_l,12.0000000000,9.0000000000
global_step,S02,1.0000000000,1,S02_v1.0_T1,0,62,6.0608301163,ok,1,0.9996901182,nmf,torchnmf,cpu,float32,platform_onset,analysis_window_end,3.0000000000,11.0000000000,30,110,80,step,True,False,True,actual_step_onset,False,step_L,step_l,right,L,young,True,replace_v3d_meta_prefilter,step_l,12.0000000000,9.0000000000
global_step,S02,1.0000000000,1,S02_v1.0_T1,0,63,6.0547971725,ok,1,0.9996901182,nmf,torchnmf,cpu,float32,platform_onset,analysis_window_end,3.0000000000,11.0000000000,30,110,80,step,True,False,True,actual_step_onset,False,step_L,step_l,right,L,young,True,replace_v3d_meta_prefilter,step_l,12.0000000000,9.0000000000
global_step,S02,1.0000000000,1,S02_v1.0_T1,0,64,6.0487647057,ok,1,0.9996901182,nmf,torchnmf,cpu,float32,platform_onset,analysis_window_end,3.0000000000,11.0000000000,30,110,80,step,True,False,True,actual_step_onset,False,step_L,step_l,right,L,young,True,replace_v3d_meta_prefilter,step_l,12.0000000000,9.0000000000
global_step,S02,1.0000000000,1,S02_v1.0_T1,0,65,6.0427317619,ok,1,0.9996901182,nmf,torchnmf,cpu,float32,platform_onset,analysis_window_end,3.0000000000,11.0000000000,30,110,80,step,True,False,True,actual_step_onset,False,step_L,step_l,right,L,young,True,replace_v3d_meta_prefilter,step_l,12.0000000000,9.0000000000
global_step,S02,1.0000000000,1,S02_v1.0_T1,0,66,6.0366992950,ok,1,0.9996901182,nmf,torchnmf,cpu,float32,platform_onset,analysis_window_end,3.0000000000,11.0000000000,30,110,80,step,True,False,True,actual_step_onset,False,step_L,step_l,right,L,young,True,replace_v3d_meta_prefilter,step_l,12.0000000000,9.0000000000
global_step,S02,1.0000000000,1,S02_v1.0_T1,0,67,6.0306668282,ok,1,0.9996901182,nmf,torchnmf,cpu,float32,platform_onset,analysis_window_end,3.0000000000,11.0000000000,30,110,80,step,True,False,True,actual_step_onset,False,step_L,step_l,right,L,young,True,replace_v3d_meta_prefilter,step_l,12.0000000000,9.0000000000
global_step,S02,1.0000000000,1,S02_v1.0_T1,0,68,6.0246338844,ok,1,0.9996901182,nmf,torchnmf,cpu,float32,platform_onset,analysis_window_end,3.0000000000,11.0000000000,30,110,80,step,True,False,True,actual_step_onset,False,step_L,step_l,right,L,young,True,replace_v3d_meta_prefilter,step_l,12.0000000000,9.0000000000
global_step,S02,1.0000000000,1,S02_v1.0_T1,0,69,6.0186014175,ok,1,0.9996901182,nmf,torchnmf,cpu,float32,platform_onset,analysis_window_end,3.0000000000,11.0000000000,30,110,80,step,True,False,True,actual_step_onset,False,step_L,step_l,right,L,young,True,replace_v3d_meta_prefilter,step_l,12.0000000000,9.0000000000
global_step,S02,1.0000000000,1,S02_v1.0_T1,0,70,6.0125684738,ok,1,0.9996901182,nmf,torchnmf,cpu,float32,platform_onset,analysis_window_end,3.0000000000,11.0000000000,30,110,80,step,True,False,True,actual_step_onset,False,step_L,step_l,right,L,young,True,replace_v3d_meta_prefilter,step_l,12.0000000000,9.0000000000
global_step,S02,1.0000000000,1,S02_v1.0_T1,0,71,6.0065360069,ok,1,0.9996901182,nmf,torchnmf,cpu,float32,platform_onset,analysis_window_end,3.0000000000,11.0000000000,30,110,80,step,True,False,True,actual_step_onset,False,step_L,step_l,right,L,young,True,replace_v3d_meta_prefilter,step_l,12.0000000000,9.0000000000
global_step,S02,1.0000000000,1,S02_v1.0_T1,0,72,6.0005035400,ok,1,0.9996901182,nmf,torchnmf,cpu,float32,platform_onset,analysis_window_end,3.0000000000,11.0000000000,30,110,80,step,True,False,True,actual_step_onset,False,step_L,step_l,right,L,young,True,replace_v3d_meta_prefilter,step_l,12.0000000000,9.0000000000
global_step,S02,1.0000000000,1,S02_v1.0_T1,0,73,5.9944705963,ok,1,0.9996901182,nmf,torchnmf,cpu,float32,platform_onset,analysis_window_end,3.0000000000,11.0000000000,30,110,80,step,True,False,True,actual_step_onset,False,step_L,step_l,right,L,young,True,replace_v3d_meta_prefilter,step_l,12.0000000000,9.0000000000
global_step,S02,1.0000000000,1,S02_v1.0_T1,0,74,5.9884381294,ok,1,0.9996901182,nmf,torchnmf,cpu,float32,platform_onset,analysis_window_end,3.0000000000,11.0000000000,30,110,80,step,True,False,True,actual_step_onset,False,step_L,step_l,right,L,young,True,replace_v3d_meta_prefilter,step_l,12.0000000000,9.0000000000
global_step,S02,1.0000000000,1,S02_v1.0_T1,0,75,5.9823808670,ok,1,0.9996901182,nmf,torchnmf,cpu,float32,platform_onset,analysis_window_end,3.0000000000,11.0000000000,30,110,80,step,True,False,True,actual_step_onset,False,step_L,step_l,right,L,young,True,replace_v3d_meta_prefilter,step_l,12.0000000000,9.0000000000
global_step,S02,1.0000000000,1,S02_v1.0_T1,0,76,5.9763150215,ok,1,0.9996901182,nmf,torchnmf,cpu,float32,platform_onset,analysis_window_end,3.0000000000,11.0000000000,30,110,80,step,True,False,True,actual_step_onset,False,step_L,step_l,right,L,young,True,replace_v3d_meta_prefilter,step_l,12.0000000000,9.0000000000
global_step,S02,1.0000000000,1,S02_v1.0_T1,0,77,5.9702491760,ok,1,0.9996901182,nmf,torchnmf,cpu,float32,platform_onset,analysis_window_end,3.0000000000,11.0000000000,30,110,80,step,True,False,True,actual_step_onset,False,step_L,step_l,right,L,young,True,replace_v3d_meta_prefilter,step_l,12.0000000000,9.0000000000
global_step,S02,1.0000000000,1,S02_v1.0_T1,0,78,5.9641838074,ok,1,0.9996901182,nmf,torchnmf,cpu,float32,platform_onset,analysis_window_end,3.0000000000,11.0000000000,30,110,80,step,True,False,True,actual_step_onset,False,step_L,step_l,right,L,young,True,replace_v3d_meta_prefilter,step_l,12.0000000000,9.0000000000
global_step,S02,1.0000000000,1,S02_v1.0_T1,0,79,5.9581179619,ok,1,0.9996901182,nmf,torchnmf,cpu,float32,platform_onset,analysis_window_end,3.0000000000,11.0000000000,30,110,80,step,True,False,True,actual_step_onset,False,step_L,step_l,right,L,young,True,replace_v3d_meta_prefilter,step_l,12.0000000000,9.0000000000
global_step,S02,1.0000000000,1,S02_v1.0_T1,0,80,5.9520525932,ok,1,0.9996901182,nmf,torchnmf,cpu,float32,platform_onset,analysis_window_end,3.0000000000,11.0000000000,30,110,80,step,True,False,True,actual_step_onset,False,step_L,step_l,right,L,young,True,replace_v3d_meta_prefilter,step_l,12.0000000000,9.0000000000
global_step,S02,1.0000000000,1,S02_v1.0_T1,0,81,5.9459867477,ok,1,0.9996901182,nmf,torchnmf,cpu,float32,platform_onset,analysis_window_end,3.0000000000,11.0000000000,30,110,80,step,True,False,True,actual_step_onset,False,step_L,step_l,right,L,young,True,replace_v3d_meta_prefilter,step_l,12.0000000000,9.0000000000
global_step,S02,1.0000000000,1,S02_v1.0_T1,0,82,5.9399213791,ok,1,0.9996901182,nmf,torchnmf,cpu,float32,platform_onset,analysis_window_end,3.0000000000,11.0000000000,30,110,80,step,True,False,True,actual_step_onset,False,step_L,step_l,right,L,young,True,replace_v3d_meta_prefilter,step_l,12.0000000000,9.0000000000
global_step,S02,1.0000000000,1,S02_v1.0_T1,0,83,5.9338555336,ok,1,0.9996901182,nmf,torchnmf,cpu,float32,platform_onset,analysis_window_end,3.0000000000,11.0000000000,30,110,80,step,True,False,True,actual_step_onset,False,step_L,step_l,right,L,young,True,replace_v3d_meta_prefilter,step_l,12.0000000000,9.0000000000
global_step,S02,1.0000000000,1,S02_v1.0_T1,0,84,5.9277896881,ok,1,0.9996901182,nmf,torchnmf,cpu,float32,platform_onset,analysis_window_end,3.0000000000,11.0000000000,30,110,80,step,True,False,True,actual_step_onset,False,step_L,step_l,right,L,young,True,replace_v3d_meta_prefilter,step_l,12.0000000000,9.0000000000
global_step,S02,1.0000000000,1,S02_v1.0_T1,0,85,5.9217243195,ok,1,0.9996901182,nmf,torchnmf,cpu,float32,platform_onset,analysis_window_end,3.0000000000,11.0000000000,30,110,80,step,True,False,True,actual_step_onset,False,step_L,step_l,right,L,young,True,replace_v3d_meta_prefilter,step_l,12.0000000000,9.0000000000
global_step,S02,1.0000000000,1,S02_v1.0_T1,0,86,5.9156584740,ok,1,0.9996901182,nmf,torchnmf,cpu,float32,platform_onset,analysis_window_end,3.0000000000,11.0000000000,30,110,80,step,True,False,True,actual_step_onset,False,step_L,step_l,right,L,young,True,replace_v3d_meta_prefilter,step_l,12.0000000000,9.0000000000
global_step,S02,1.0000000000,1,S02_v1.0_T1,0,87,5.9097580910,ok,1,0.9996901182,nmf,torchnmf,cpu,float32,platform_onset,analysis_window_end,3.0000000000,11.0000000000,30,110,80,step,True,False,True,actual_step_onset,False,step_L,step_l,right,L,young,True,replace_v3d_meta_prefilter,step_l,12.0000000000,9.0000000000
global_step,S02,1.0000000000,1,S02_v1.0_T1,0,88,5.9041333199,ok,1,0.9996901182,nmf,torchnmf,cpu,float32,platform_onset,analysis_window_end,3.0000000000,11.0000000000,30,110,80,step,True,False,True,actual_step_onset,False,step_L,step_l,right,L,young,True,replace_v3d_meta_prefilter,step_l,12.0000000000,9.0000000000
global_step,S02,1.0000000000,1,S02_v1.0_T1,0,89,5.8985085487,ok,1,0.9996901182,nmf,torchnmf,cpu,float32,platform_onset,analysis_window_end,3.0000000000,11.0000000000,30,110,80,step,True,False,True,actual_step_onset,False,step_L,step_l,right,L,young,True,replace_v3d_meta_prefilter,step_l,12.0000000000,9.0000000000
global_step,S02,1.0000000000,1,S02_v1.0_T1,0,90,5.8928837776,ok,1,0.9996901182,nmf,torchnmf,cpu,float32,platform_onset,analysis_window_end,3.0000000000,11.0000000000,30,110,80,step,True,False,True,actual_step_onset,False,step_L,step_l,right,L,young,True,replace_v3d_meta_prefilter,step_l,12.0000000000,9.0000000000
global_step,S02,1.0000000000,1,S02_v1.0_T1,0,91,5.8872590065,ok,1,0.9996901182,nmf,torchnmf,cpu,float32,platform_onset,analysis_window_end,3.0000000000,11.0000000000,30,110,80,step,True,False,True,actual_step_onset,False,step_L,step_l,right,L,young,True,replace_v3d_meta_prefilter,step_l,12.0000000000,9.0000000000
global_step,S02,1.0000000000,1,S02_v1.0_T1,0,92,5.8816342354,ok,1,0.9996901182,nmf,torchnmf,cpu,float32,platform_onset,analysis_window_end,3.0000000000,11.0000000000,30,110,80,step,True,False,True,actual_step_onset,False,step_L,step_l,right,L,young,True,replace_v3d_meta_prefilter,step_l,12.0000000000,9.0000000000
global_step,S02,1.0000000000,1,S02_v1.0_T1,0,93,5.8760094643,ok,1,0.9996901182,nmf,torchnmf,cpu,float32,platform_onset,analysis_window_end,3.0000000000,11.0000000000,30,110,80,step,True,False,True,actual_step_onset,False,step_L,step_l,right,L,young,True,replace_v3d_meta_prefilter,step_l,12.0000000000,9.0000000000
global_step,S02,1.0000000000,1,S02_v1.0_T1,0,94,5.8703846931,ok,1,0.9996901182,nmf,torchnmf,cpu,float32,platform_onset,analysis_window_end,3.0000000000,11.0000000000,30,110,80,step,True,False,True,actual_step_onset,False,step_L,step_l,right,L,young,True,replace_v3d_meta_prefilter,step_l,12.0000000000,9.0000000000
global_step,S02,1.0000000000,1,S02_v1.0_T1,0,95,5.8647599220,ok,1,0.9996901182,nmf,torchnmf,cpu,float32,platform_onset,analysis_window_end,3.0000000000,11.0000000000,30,110,80,step,True,False,True,actual_step_onset,False,step_L,step_l,right,L,young,True,replace_v3d_meta_prefilter,step_l,12.0000000000,9.0000000000
global_step,S02,1.0000000000,1,S02_v1.0_T1,0,96,5.8591351509,ok,1,0.9996901182,nmf,torchnmf,cpu,float32,platform_onset,analysis_window_end,3.0000000000,11.0000000000,30,110,80,step,True,False,True,actual_step_onset,False,step_L,step_l,right,L,young,True,replace_v3d_meta_prefilter,step_l,12.0000000000,9.0000000000
global_step,S02,1.0000000000,1,S02_v1.0_T1,0,97,5.8535103798,ok,1,0.9996901182,nmf,torchnmf,cpu,float32,platform_onset,analysis_window_end,3.0000000000,11.0000000000,30,110,80,step,True,False,True,actual_step_onset,False,step_L,step_l,right,L,young,True,replace_v3d_meta_prefilter,step_l,12.0000000000,9.0000000000
global_step,S02,1.0000000000,1,S02_v1.0_T1,0,98,5.8478856087,ok,1,0.9996901182,nmf,torchnmf,cpu,float32,platform_onset,analysis_window_end,3.0000000000,11.0000000000,30,110,80,step,True,False,True,actual_step_onset,False,step_L,step_l,right,L,young,True,replace_v3d_meta_prefilter,step_l,12.0000000000,9.0000000000
global_step,S02,1.0000000000,1,S02_v1.0_T1,0,99,5.8422608376,ok,1,0.9996901182,nmf,torchnmf,cpu,float32,platform_onset,analysis_window_end,3.0000000000,11.0000000000,30,110,80,step,True,False,True,actual_step_onset,False,step_L,step_l,right,L,young,True,replace_v3d_meta_prefilter,step_l,12.0000000000,9.0000000000
global_step,S02,1.0000000000,2,S02_v1.0_T2,0,0,6.6862897873,ok,1,0.9995551354,nmf,torchnmf,cpu,float32,platform_onset,analysis_window_end,3.0000000000,13.0000000000,30,130,100,step,True,False,True,actual_step_onset,False,step_L,step_l,right,L,young,True,replace_v3d_meta_prefilter,step_l,12.0000000000,9.0000000000
global_step,S02,1.0000000000,2,S02_v1.0_T2,0,1,6.6862993240,ok,1,0.9995551354,nmf,torchnmf,cpu,float32,platform_onset,analysis_window_end,3.0000000000,13.0000000000,30,130,100,step,True,False,True,actual_step_onset,False,step_L,step_l,right,L,young,True,replace_v3d_meta_prefilter,step_l,12.0000000000,9.0000000000
global_step,S02,1.0000000000,2,S02_v1.0_T2,0,2,6.6863088608,ok,1,0.9995551354,nmf,torchnmf,cpu,float32,platform_onset,analysis_window_end,3.0000000000,13.0000000000,30,130,100,step,True,False,True,actual_step_onset,False,step_L,step_l,right,L,young,True,replace_v3d_meta_prefilter,step_l,12.0000000000,9.0000000000
global_step,S02,1.0000000000,2,S02_v1.0_T2,0,3,6.6863183975,ok,1,0.9995551354,nmf,torchnmf,cpu,float32,platform_onset,analysis_window_end,3.0000000000,13.0000000000,30,130,100,step,True,False,True,actual_step_onset,False,step_L,step_l,right,L,young,True,replace_v3d_meta_prefilter,step_l,12.0000000000,9.0000000000
global_step,S02,1.0000000000,2,S02_v1.0_T2,0,4,6.6863279343,ok,1,0.9995551354,nmf,torchnmf,cpu,float32,platform_onset,analysis_window_end,3.0000000000,13.0000000000,30,130,100,step,True,False,True,actual_step_onset,False,step_L,step_l,right,L,young,True,replace_v3d_meta_prefilter,step_l,12.0000000000,9.0000000000
global_step,S02,1.0000000000,2,S02_v1.0_T2,0,5,6.6863374710,ok,1,0.9995551354,nmf,torchnmf,cpu,float32,platform_onset,analysis_window_end,3.0000000000,13.0000000000,30,130,100,step,True,False,True,actual_step_onset,False,step_L,step_l,right,L,young,True,replace_v3d_meta_prefilter,step_l,12.0000000000,9.0000000000
global_step,S02,1.0000000000,2,S02_v1.0_T2,0,6,6.6863470078,ok,1,0.9995551354,nmf,torchnmf,cpu,float32,platform_onset,analysis_window_end,3.0000000000,13.0000000000,30,130,100,step,True,False,True,actual_step_onset,False,step_L,step_l,right,L,young,True,replace_v3d_meta_prefilter,step_l,12.0000000000,9.0000000000
global_step,S02,1.0000000000,2,S02_v1.0_T2,0,7,6.6863565445,ok,1,0.9995551354,nmf,torchnmf,cpu,float32,platform_onset,analysis_window_end,3.0000000000,13.0000000000,30,130,100,step,True,False,True,actual_step_onset,False,step_L,step_l,right,L,young,True,replace_v3d_meta_prefilter,step_l,12.0000000000,9.0000000000
global_step,S02,1.0000000000,2,S02_v1.0_T2,0,8,6.6863660812,ok,1,0.9995551354,nmf,torchnmf,cpu,float32,platform_onset,analysis_window_end,3.0000000000,13.0000000000,30,130,100,step,True,False,True,actual_step_onset,False,step_L,step_l,right,L,young,True,replace_v3d_meta_prefilter,step_l,12.0000000000,9.0000000000
global_step,S02,1.0000000000,2,S02_v1.0_T2,0,9,6.6863756180,ok,1,0.9995551354,nmf,torchnmf,cpu,float32,platform_onset,analysis_window_end,3.0000000000,13.0000000000,30,130,100,step,True,False,True,actual_step_onset,False,step_L,step_l,right,L,young,True,replace_v3d_meta_prefilter,step_l,12.0000000000,9.0000000000
global_step,S02,1.0000000000,2,S02_v1.0_T2,0,10,6.6861701012,ok,1,0.9995551354,nmf,torchnmf,cpu,float32,platform_onset,analysis_window_end,3.0000000000,13.0000000000,30,130,100,step,True,False,True,actual_step_onset,False,step_L,step_l,right,L,young,True,replace_v3d_meta_prefilter,step_l,12.0000000000,9.0000000000
global_step,S02,1.0000000000,2,S02_v1.0_T2,0,11,6.6840271950,ok,1,0.9995551354,nmf,torchnmf,cpu,float32,platform_onset,analysis_window_end,3.0000000000,13.0000000000,30,130,100,step,True,False,True,actual_step_onset,False,step_L,step_l,right,L,young,True,replace_v3d_meta_prefilter,step_l,12.0000000000,9.0000000000
global_step,S02,1.0000000000,2,S02_v1.0_T2,0,12,6.6818847656,ok,1,0.9995551354,nmf,torchnmf,cpu,float32,platform_onset,analysis_window_end,3.0000000000,13.0000000000,30,130,100,step,True,False,True,actual_step_onset,False,step_L,step_l,right,L,young,True,replace_v3d_meta_prefilter,step_l,12.0000000000,9.0000000000
global_step,S02,1.0000000000,2,S02_v1.0_T2,0,13,6.6797423363,ok,1,0.9995551354,nmf,torchnmf,cpu,float32,platform_onset,analysis_window_end,3.0000000000,13.0000000000,30,130,100,step,True,False,True,actual_step_onset,False,step_L,step_l,right,L,young,True,replace_v3d_meta_prefilter,step_l,12.0000000000,9.0000000000
global_step,S02,1.0000000000,2,S02_v1.0_T2,0,14,6.6775999069,ok,1,0.9995551354,nmf,torchnmf,cpu,float32,platform_onset,analysis_window_end,3.0000000000,13.0000000000,30,130,100,step,True,False,True,actual_step_onset,False,step_L,step_l,right,L,young,True,replace_v3d_meta_prefilter,step_l,12.0000000000,9.0000000000
